File: dublin_poster_plots/Tensile Tests - Quenched Samples 20180604/BLPX-M1-Q015-04_20180604/specimen.dat
MTS793|MPT|ENU|1|2|.|/|:|1|0|0|A

Data Acquisition						Time:	102.545	s	6/4/2018 2:10:54 PM
Time	MTS 4 Displacement 4	MTS 4 Force 4
s	mm	N
0.117676	0.000718236	14.1517
0.217773	0.00180304	24.7567
0.317871	0.0043422	42.378
0.417969	0.00769496	61.6839
0.518066	0.00978708	85.81662
0.618164	0.0128925	113.874
0.718262	0.0176668	138.361
0.818359	0.0215918	165.743
0.918457	0.0237316	188.549
1.01855	0.0276208	213.2861
1.11865	0.0312895	236.8018
1.21875	0.0334144	260.812
1.31885	0.036642	285.53
1.41895	0.0399172	309.499
1.519043	0.0437737	336.289
1.61914	0.0470787	362.4892
1.71924	0.0510573	388.853
1.81934	0.0533283	412.807
1.91943	0.0560701	438.352
2.01953	0.0609249	461.082
2.11963	0.0638485	486.2113
2.21973	0.06698966	509.124
2.31982	0.0707775	534.778
2.41992	0.0740349	558.001
2.52002	0.0770956	582.129
2.62012	0.0797957	607.755
2.72021	0.0833511	631.302
2.82031	0.0863016	657.452
2.92041	0.0897825	680.843
3.02051	0.0931084	707.021
3.12061	0.0969619	732.851
3.2207	0.100112	757.764
3.3208	0.103247	781.377
3.4209	0.106877	806.594
3.521	0.108513	830.0033
3.62109	0.112373	855.91
3.72119	0.115675	878.07
3.82129	0.119409	902.956
3.92139	0.122145	927.216
4.02148	0.125587	951.695
4.121582	0.129342	978.104
4.22168	0.1332283	1003.79
4.32178	0.13586	1026.2
4.421875	0.139242	1050.02
4.52197	0.141758	1075.27
4.62207	0.145188	1100.86
4.722168	0.148749	1125.78
4.82227	0.152504	1151.33
4.92236	0.154868	1175.84
5.02246	0.159609	1199.08
5.12256	0.162527	1223.323
5.22266	0.166208	1250.32
5.32275	0.168723	1273.88
5.42285	0.172219	1297.224
5.52295	0.175494	1324.8
5.62305	0.179127	1349.65
5.72314	0.182828	1373.21
5.82324	0.1856029	1397.844
5.92334	0.189075	1423.81
6.02344	0.192934	1449.22
6.12354	0.19531	1472.17
6.22363	0.198865	1497.05
6.32373	0.202605	1522.44
6.42383	0.205675	1546.51
6.52393	0.208044	1571.66
6.62402	0.211608	1597.674
6.72412	0.216702	1623.28
6.82422	0.220215	1646.912
6.92432	0.223073	1671.81
7.02441	0.22682	1696.68
7.12451	0.229797	1721.52
7.22461	0.233456	1746.26
7.324707	0.237328	1771.55
7.4248	0.239497	1794.44
7.5249	0.242707	1817.199
7.625	0.246316	1841.74
7.7251	0.249323	1868.48
7.8252	0.253972	1894.08
7.925293	0.257343	1919.62
8.02539	0.260726	1944.325
8.12549	0.263432	1967.76
8.22559	0.267547	1993.01
8.32568	0.270063	2018.244
8.42578	0.273138	2041.52
8.52588	0.276583	2066.092
8.62598	0.280294	2091.75
8.72607	0.283405	2114.25
8.82617	0.286609	2139.22
8.92627	0.290328	2164.43
9.02637	0.294033	2188.63
9.12646	0.296763	2213.01
9.22656	0.300238	2235.09
9.32666	0.302902	2263.29
9.42676	0.3076762	2292.25
9.52686	0.3121525	2319.4
9.62695	0.314549	2344.23
9.72705	0.318187	2368.2
9.82715	0.3213346	2391.39
9.92725	0.324437	2413.6
10.0273	0.327718	2436.94
10.1274	0.33119	2458.91
10.2275	0.333804	2483.44
10.3276	0.3371	2507.92
10.4277	0.341108	2531.72
10.5278	0.344104	2555.02
10.62793	0.347808	2578.69
10.728	0.352016	2604.26
10.8281	0.353652	2627.49
10.9282	0.35817	2651.06
11.02832	0.361186	2675.145
11.1284	0.364617	2700.76
11.2285	0.366753	2725.76
11.3286	0.372073	2751.26
11.4287	0.375676	2774.53
11.5288	0.377941	2798.48
11.6289	0.381505	2821.91
11.729	0.384992	2847.69
11.8291	0.38667	2870.19
11.9292	0.392082	2895.28
12.0293	0.395289	2918.56
12.1294	0.39877	2942.99
12.2295	0.401637	2966.76
12.32959	0.405166	2988.09
12.4297	0.40856	3012.73
12.5298	0.411528	3037.62
12.6299	0.415522	3060.01
12.72998	0.419322	3083.71
12.8301	0.420815	3106.64
12.9302	0.424808	3129.646
13.0303	0.428978	3154.25
13.1304	0.43045	3177.36
13.2305	0.433907	3202.18
13.3306	0.437778	3227.71
13.4307	0.441501	3254.13
13.5308	0.445279	3274.88
13.6309	0.448161	3299.998
13.731	0.450572	3321.41
13.8311	0.454864	3343.29
13.9312	0.457937	3366.88
14.03125	0.4627347	3390.85
14.1313	0.464892	3416.35
14.2314	0.468895	3439.853
14.3315	0.471318	3464.613
14.4316	0.47456	3486.67
14.5317	0.479406	3511.15
14.6318	0.481531	3533.37
14.7319	0.485563	3559.19
14.832	0.488597	3585.321
14.9321	0.491211	3607.64
15.0322	0.494507	3630.4
15.1323	0.4984051	3651.89
15.2324	0.502142	3675.49
15.33252	0.504959	3696.05
15.4326	0.50773	3718.94
15.5327	0.51198	3742.46
15.6328	0.514767	3766.81
15.73291	0.518176	3789.68
15.833	0.521988	3812.21
15.9331	0.524989	3836.82
16.0332	0.5287677	3863.33
16.1333	0.532153	3886.1
16.2334	0.535363	3910.751
16.3335	0.538683	3932.35
16.4336	0.540397	3951.834
16.5337	0.544405	3972.54
16.6338	0.548002	4001.6
16.7339	0.551471	4027.78
16.834	0.555351	4051.3
16.9341	0.558534	4074.75
17.03418	0.561121	4095.36
17.1343	0.564587	4118.334
17.2344	0.569314	4140.21
17.3345	0.571668	4164.22
17.43457	0.574425	4188.71
17.5347	0.579146	4213.72
17.6348	0.582397	4240.7
17.7349	0.58611	4265.59
17.835	0.588626	4290.11
17.9351	0.591564	4312.167
18.0352	0.595939	4334.93
18.1353	0.5987525	4358.48
18.2354	0.6015569	4377.75
18.3354	0.604188	4400.19
18.4355	0.608373	4424.88
18.5356	0.611618	4448.47
18.6357	0.615308	4472.18
18.73584	0.6185621	4495.29
18.8359	0.62148	4519.81
18.936	0.624868	4543.33
19.0361	0.628737	4566.07
19.13623	0.6323278	4589.27
19.2363	0.634643	4611.5
19.3364	0.636989	4632.13
19.4365	0.640792	4655.19
19.5366	0.644663	4678.92
19.6367	0.648269	4702.93
19.7368	0.651962	4725.86
19.8369	0.65515	4748.07
19.937	0.658342	4768.3
20.0371	0.660563	4791.6
20.1372	0.664791	4814.51
20.2373	0.667533	4837.43
20.3374	0.6709516	4861.88
20.4375	0.6744504	4887.936
20.5376	0.679132	4915.36
20.6377	0.68287	4938.06
20.7378	0.685182	4957.86
20.8379	0.688228	4980.9
20.938	0.691402	5002.145
21.0381	0.695652	5024.27
21.1382	0.698543	5046.25
21.2383	0.70127	5070.8
21.3384	0.704899	5094.51
21.4385	0.70883	5118.88
21.5386	0.711575	5142.353
21.6387	0.715187	5165.35
21.73877	0.7184118	5190.05
21.8389	0.722215	5212.875
21.939	0.726464	5236.49
22.0391	0.729179	5261.19
22.13916	0.732633	5285.707
22.2393	0.735608	5308.11
22.3394	0.739241	5329.666
22.4395	0.742951	5353.11
22.5396	0.745493	5374.61
22.6396	0.7491082	5396.9
22.7397	0.7519871	5417.71
22.8398	0.755018	5439.49
22.9399	0.758106	5458.48
23.04	0.761852	5483.52
23.1401	0.765428	5506.22
23.2402	0.769442	5531.46
23.3403	0.772178	5554.48
23.44043	0.775647	5577.79
23.5405	0.777665	5601.1
23.6406	0.782678	5627.55
23.7407	0.785807	5650.93
23.84082	0.788853	5673.9
23.9409	0.792369	5692.04
24.041	0.795484	5713.79
24.1411	0.798213	5738.68
24.2412	0.8027643	5760.03
24.3413	0.805235	5783.69
24.4414	0.807804	5807.58
24.5415	0.81158	5832.32
24.6416	0.816631	5852.86
24.7417	0.818175	5872.63
24.8418	0.821197	5892.63
24.9419	0.825572	5919.33
25.042	0.827923	5943.24
25.14209	0.832641	5964.92
25.2422	0.834885	5987.34
25.3423	0.838783	6010.73
25.4424	0.840482	6031.49
25.54248	0.845155	6053.39
25.6426	0.848016	6076.34
25.7427	0.852418	6099.49
25.8428	0.855768	6124.2
25.9429	0.859341	6149.94
26.043	0.863522	6175.46
26.1431	0.865775	6197.66
26.2432	0.869301	6218.71
26.3433	0.872606	6239.6
26.4434	0.874737	6262.38
26.5435	0.878984	6285.33
26.6436	0.881985	6306.83
26.7437	0.886026	6332.26
26.84375	0.888661	6351.97
26.9438	0.892764	6374.42
27.0439	0.895295	6393.519
27.144	0.899321	6415.79
27.2441	0.9029299	6437.32
27.3442	0.906059	6462.01
27.4443	0.908497	6486.78
27.5444	0.91337	6509.62
27.6445	0.9152323	6533.76
27.7446	0.918797	6555.82
27.8447	0.922352	6577.6
27.9448	0.924727	6600.854
28.0449	0.929263	6624.7
28.14502	0.933221	6649.68
28.2451	0.93618	6672.22
28.3452	0.939208	6693.626
28.4453	0.94254	6715.15
28.54541	0.946397	6735.25
28.6455	0.948849	6757.72
28.7456	0.9517014	6778.59
28.8457	0.954023	6801.49
28.9458	0.959128	6827.52
29.0459	0.9633	6851.08
29.146	0.967112	6874.58
29.2461	0.970012	6897.22
29.3462	0.972068	6918.54
29.4463	0.975931	6939.75
29.5464	0.9783715	6959.37
29.6465	0.9816736	6981.59
29.7466	0.98615	7004.28
29.84668	0.989574	7027.25
29.9468	0.992364	7049.52
30.0469	0.9960115	7072.8
30.147	0.999591	7094.73
30.24707	1.0029	7119.7
30.3472	1.00646	7145.41
30.4473	1.01163	7176.83
30.5474	1.01655	7212.73
30.6475	1.02028	7242.43
30.7476	1.02417	7270.66
30.8477	1.02773	7298.51
30.9478	1.03286	7323.6
31.0479	1.03584	7346.91
31.1479	1.03959	7369.99
31.248	1.04319	7391.3
31.3481	1.04606	7412.73
31.4482	1.04851	7435.69
31.54834	1.05193	7455
31.6484	1.05522	7474.91
31.7485	1.05798	7494.56
31.8486	1.06135	7516.07
31.94873	1.06413	7535.78
32.0488	1.06812	7555.01
32.1489	1.07016	7574.53
32.249	1.07242	7594.49
32.3491	1.07749	7615.418
32.4492	1.08061	7638.14
32.5493	1.0837	7659.21
32.6494	1.08637	7677.33
32.7495	1.08965	7700.01
32.8496	1.09289	7720.99
32.9497	1.09571	7741.74
33.0498	1.0985	7763.12
33.1499	1.10299	7786.56
33.25	1.1049	7810.019
33.3501	1.1095	7830.17
33.4502	1.1126	7852.91
33.5503	1.11566	7873.1
33.6504	1.11967	7894.7
33.7505	1.12191	7916.22
33.8506	1.12602	7939.93
33.9507	1.12928	7963.42
34.0508	1.13251	7986.17
34.1509	1.13621	8013.99
34.251	1.14124	8046.97
34.3511	1.1505	8109.97
34.4512	1.16228	8206.53
34.55127	1.16667	8231.14
34.6514	1.170972	8254.32
34.7515	1.17363	8270.31
34.8516	1.176545	8291.584
34.95166	1.18085	8310.51
35.0518	1.183188	8329.34
35.1519	1.18636	8347.417
35.252	1.18898	8365.28
35.3521	1.19231	8381.74
35.4521	1.19514	8399.96
35.5522	1.19778	8417.96
35.6523	1.200968	8436.47
35.7524	1.204282	8455.92
35.8525	1.20772	8474.65
35.9526	1.21015	8495.21
36.0527	1.21272	8515.3
36.1528	1.21575	8533.55
36.25293	1.21894	8556.668
36.353	1.22257	8573.22
36.4531	1.22477	8590.23
36.5532	1.228404	8609.875
36.65332	1.23055	8630.02
36.7534	1.23423	8652.22
36.8535	1.23643	8671.1
36.9536	1.24087	8690.57
37.0537	1.24255	8710.26
37.1538	1.24617	8730.21
37.2539	1.24947	8751.31
37.354	1.25218	8771.72
37.4541	1.25549	8790.98
37.5542	1.25794	8811.45
37.6543	1.26165	8830.93
37.7544	1.26396	8852.73
37.8545	1.26793	8870.86
37.95459	1.27074	8891.749
38.0547	1.27464	8913.31
38.1548	1.27779	8932.78
38.2549	1.28044	8954.07
38.35498	1.28385	8974.86
38.4551	1.287505	8994.38
38.5552	1.2897	9014.59
38.6553	1.2923	9035.16
38.7554	1.29693	9056.53
38.8555	1.29935	9074.68
38.9556	1.30087	9098.19
39.0557	1.30563	9116.8
39.1558	1.30813	9140.09
39.2559	1.31169	9159.877
39.356	1.31492	9180.53
39.4561	1.31794	9202.33
39.5562	1.32241	9225.81
39.65625	1.32499	9246.5
39.7563	1.32831	9266.31
39.8564	1.33104	9287.04
39.9565	1.33489	9308.05
40.0566	1.33761	9329.65
40.1567	1.34082	9352.67
40.2568	1.343748	9373.8
40.3569	1.34716	9394.53
40.457	1.35073	9415.99
40.5571	1.35337	9437.22
40.6572	1.35665	9458.16
40.7573	1.35987	9478.26
40.8574	1.36324	9498.87
40.95752	1.36644	9519.99
41.0576	1.369077	9539.88
41.1577	1.37307	9561.54
41.2578	1.37537	9581.33
41.35791	1.37911	9602.24
41.458	1.38195	9623.84
41.5581	1.38513	9645.02
41.6582	1.3895	9667.64
41.7583	1.3923	9688.43
41.8584	1.3957	9709.127
41.9585	1.39891	9731.59
42.0586	1.40141	9752.72
42.1587	1.40499	9772.99
42.2588	1.40885	9793.85
42.3589	1.4111	9813.09
42.459	1.41574	9835.81
42.5591	1.41731	9856.12
42.65918	1.42118	9878.877
42.7593	1.42488	9900.78
42.8594	1.4285	9921.52
42.9595	1.431638	9943.68
43.05957	1.4337	9962.68
43.1597	1.437363	9983.39
43.2598	1.44221	10002.916
43.3599	1.44501	10025.422
43.46	1.44646	10044.294
43.5601	1.450789	10065.77
43.6602	1.454103	10087.99
43.7603	1.45684	10110.973
43.8604	1.45993	10130.666
43.9604	1.46371	10151.417
44.0605	1.46633	10172.134
44.1606	1.47027	10193.198
44.2607	1.47296	10213.686
44.36084	1.47629	10236.877
44.4609	1.4802	10257.905
44.561	1.48309	10279.864
44.6611	1.4871	10300.903
44.76123	1.48989	10322.196
44.8613	1.49331	10341.58
44.9614	1.49577	10363.406
45.0615	1.50051	10386.159
45.1616	1.5037	10407.865
45.2617	1.50595	10427.655
45.3618	1.50975	10448.985
45.4619	1.51229	10470.779
45.562	1.51644	10489.847
45.6621	1.52111	10511.547
45.7622	1.52308	10532.762
45.8623	1.526615	10554.765
45.9624	1.52912	10574.805
46.0625	1.532951	10598.576
46.1626	1.53548	10618.062
46.2627	1.53871	10640.115
46.3628	1.54156	10659.619
46.4629	1.54596	10680.352
46.563	1.5487	10701.89
46.6631	1.55267	10722.714
46.7632	1.55524	10745.075
46.8633	1.55899	10764.729
46.9634	1.56131	10784.829
47.0635	1.56489	10804.138
47.1636	1.56801	10825.128
47.2637	1.57262	10847.927
47.36377	1.57461	10867.174
47.4639	1.5788	10889.559
47.564	1.58155	10911.98
47.6641	1.58522	10932.086
47.76416	1.58756	10952.004
47.8643	1.59111	10974.785
47.9644	1.59399	10995.74
48.0645	1.59879	11018.08
48.1646	1.60148	11036.817
48.2646	1.60548	11059.099
48.3647	1.6078	11080.525
48.4648	1.61144	11103.133
48.5649	1.61523	11122.432
48.665	1.617074	11145.119
48.7651	1.622048	11166.586
48.8652	1.6248	11187.597
48.9653	1.6289	11207.287
49.06543	1.63174	11228.593
49.1655	1.63559	11252.531
49.2656	1.6388	11274.79
49.3657	1.6424	11297.404
49.46582	1.64472	11317.03
49.5659	1.64821	11337.752
49.666	1.65174	11358.257
49.7661	1.65453	11380.656
49.8662	1.65804	11401.914
49.9663	1.66091	11418.369
50.0664	1.66452	11437.517
50.1665	1.66716	11461.192
50.2666	1.67141	11483.325
50.3667	1.67484	11507.968
50.4668	1.678133	11529.551
50.5669	1.68151	11554.002
50.667	1.68453	11573.941
50.76709	1.68829	11594.872
50.8672	1.69135	11613.432
50.9673	1.69435	11633.008
51.0674	1.69842	11654.455
51.16748	1.70143	11674.443
51.2676	1.704219	11696.255
51.3677	1.70839	11718.57
51.4678	1.71167	11740.577
51.5679	1.7139	11759.637
51.668	1.71808	11780.031
51.7681	1.72073	11800.406
51.8682	1.7251	11822.103
51.9683	1.72892	11843.312
52.0684	1.73173	11864.528
52.1685	1.7342	11887.941
52.2686	1.73935	11908.599
52.3687	1.74142	11927.797
52.46875	1.74499	11950.071
52.5688	1.74851	11968.357
52.6689	1.75139	11992.756
52.769	1.75398	12013.871
52.8691	1.7587	12035.354
52.9692	1.76173	12057.963
53.0693	1.76519	12078.279
53.1694	1.76862	12097.472
53.2695	1.7712	12119.042
53.3696	1.77507	12138.93
53.4697	1.77803	12159.964
53.5698	1.78168	12180.015
53.6699	1.784879	12203.21
53.77002	1.78656	12224.935
53.8701	1.79135	12244.873
53.9702	1.79379	12265.885
54.0703	1.79842	12287.996
54.17041	1.80126	12309.211
54.2705	1.8053	12330.099
54.3706	1.8087	12352.786
54.4707	1.8123	12373.08
54.5708	1.81462	12394.647
54.6709	1.81826	12414.984
54.771	1.82063	12434.291
54.8711	1.82553	12458.924
54.9712	1.82816	12479.469
55.0713	1.83175	12501.58
55.1714	1.83535	12522.721
55.2715	1.83807	12543.169
55.3716	1.84115	12565.873
55.47168	1.84565	12586.06
55.5718	1.848802	12606.739
55.6719	1.85054	12627.583
55.772	1.85477	12648.563
55.87207	1.85915	12668.971
55.9722	1.86225	12693.188
56.0723	1.86571	12714.335
56.1724	1.86897	12732.923
56.2725	1.872769	12756.693
56.3726	1.87587	12776.866
56.4727	1.87976	12796.846
56.5728	1.88048	12817.604
56.6729	1.88542	12838.512
56.7729	1.88838	12853.808
56.873	1.89128	12877.465
56.9731	1.89315	12898
57.0732	1.89998	12923.634
57.17334	1.90238	12946.419
57.2734	1.905787	12967.099
57.3735	1.90866	12986.617
57.4736	1.91183	13007.024
57.57373	1.91533	13026.383
57.6738	1.91746	13044.75
57.7739	1.92138	13067.199
57.874	1.92504	13088
57.9741	1.92876	13110.382
58.0742	1.93222	13132.021
58.1743	1.935178	13151.679
58.2744	1.93863	13172.181
58.3745	1.94241	13193.222
58.4746	1.94502	13217.628
58.5747	1.94879	13238.05
58.6748	1.95202	13256.202
58.7749	1.95592	13273.509
58.875	1.95867	13295.976
58.9751	1.963	13316.039
59.0752	1.96557	13337.138
59.1753	1.9677	13357.619
59.2754	1.97236	13381.67
59.3755	1.97505	13406.195
59.4756	1.97941	13427.834
59.5757	1.98257	13450.352
59.6758	1.98469	13469.852
59.7759	1.99053	13490.241
59.876	1.99254	13509.37
59.9761	1.99559	13530.097
60.0762	1.99952	13551.478
60.17627	2.00263	13572.956
60.2764	2.00619	13591.087
60.3765	2.00838	13613.556
60.4766	2.01199	13634.116
60.57666	2.01526	13656.278
60.6768	2.01895	13677.696
60.7769	2.02207	13697.759
60.877	2.02619	13717.928
60.9771	2.02756	13739.924
61.0771	2.03189	13759.636
61.1772	2.03526	13781.374
61.2773	2.03901	13802.104
61.3774	2.04235	13823.754
61.4775	2.04678	13842.987
61.5776	2.04848	13863.868
61.6777	2.052021	13883.013
61.7778	2.05598	13902.505
61.87793	2.05773	13923.146
61.978	2.06178	13944.14
62.0781	2.06571	13965.432
62.1782	2.06875	13986.878
62.27832	2.07212	14009.045
62.3784	2.076283	14032.198
62.4785	2.07933	14054.925
62.5786	2.08302	14074.867
62.6787	2.08561	14095.02
62.7788	2.0901	14116.019
62.8789	2.09253	14137.277
62.979	2.09596	14155.696
63.0791	2.099988	14176.249
63.1792	2.10234	14196.084
63.2793	2.10565	14217.234
63.3794	2.10969	14238.109
63.4795	2.11214	14257.271
63.57959	2.116528	14278.983
63.6797	2.1191	14301.432
63.7798	2.12266	14320.089
63.8799	2.12525	14340.359
63.97998	2.129072	14360.575
64.0801	2.13302	14379.437
64.1802	2.13488	14402.208
64.2803	2.13951	14426.198
64.3804	2.14239	14448.39
64.4805	2.14701	14471.294
64.5806	2.14997	14490.473
64.6807	2.15309	14509.635
64.7808	2.156064	14529.398
64.8809	2.15966	14549.986
64.981	2.162689	14570.868
65.0811	2.16666	14590.444
65.1812	2.1695	14611.436
65.28125	2.17222	14632.64
65.3813	2.17717	14654.129
65.4814	2.17976	14677.152
65.5815	2.18346	14697.611
65.6816	2.18731	14716.963
65.7817	2.18953	14737.473
65.8818	2.19373	14756.111
65.9819	2.19576	14774.978
66.082	2.20042	14796.068
66.1821	2.20236	14814.643
66.2822	2.20636	14832.843
66.3823	2.20763	14852.279
66.4824	2.21222	14875.27
66.58252	2.21588	14898.192
66.6826	2.21999	14919.958
66.7827	2.22209	14938.737
66.8828	2.22592	14958.82
66.98291	2.22928	14980.484
67.083	2.23333	14998.56
67.1831	2.23602	15018.383
67.2832	2.23936	15039.714
67.3833	2.242413	15059.517
67.4834	2.24655	15079.189
67.5835	2.24966	15101.185
67.6836	2.25336	15123.485
67.7837	2.25725	15145.367
67.8838	2.25986	15164.354
67.9839	2.26216	15184.208
68.084	2.26694	15203.964
68.1841	2.269444	15223.374
68.28418	2.27299	15245.084
68.3843	2.27502	15265.646
68.4844	2.28019	15288.214
68.5845	2.28358	15309.917
68.68457	2.28639	15330.735
68.7847	2.28879	15350.36
68.8848	2.2939	15371.891
68.9849	2.29663	15391.777
69.085	2.29888	15412.784
69.1851	2.30392	15435.438
69.2852	2.30674	15457.992
69.3853	2.31004	15476.539
69.4854	2.31403	15498.086
69.5854	2.31753	15518.86
69.6855	2.31962	15537.236
69.7856	2.32268	15558.295
69.8857	2.32714	15579.817
69.98584	2.3304	15603.251
70.0859	2.33412	15621.847
70.186	2.33592	15641.521
70.2861	2.34028	15659.809
70.38623	2.34328	15678.013
70.4863	2.34684	15698.815
70.5864	2.350235	15718.708
70.6865	2.35353	15738.132
70.7866	2.35636	15759.878
70.8867	2.36014	15782.096
70.9868	2.36377	15803.498
71.0869	2.36687	15824.556
71.187	2.37067	15844.068
71.2871	2.37277	15861.895
71.3872	2.37658	15882.813
71.4873	2.37938	15902.163
71.5874	2.38217	15921.906
71.6875	2.3863	15944.102
71.7876	2.38996	15965.527
71.8877	2.39217	15978.55
71.9878	2.39622	15996.772
72.0879	2.39927	16021.58
72.188	2.40191	16044.098
72.2881	2.40683	16068.023
72.3882	2.41016	16088.221
72.4883	2.41209	16109.85
72.5884	2.41687	16129.738
72.6885	2.41947	16154.848
72.7886	2.4237	16172.981
72.8887	2.42647	16191.881
72.98877	2.43031	16210.159
73.0889	2.43385	16230.074
73.189	2.43663	16251.681
73.2891	2.44046	16273.283
73.38916	2.44482	16295.246
73.4893	2.44661	16313.551
73.5894	2.44941	16333.75
73.6895	2.45381	16354.17
73.7896	2.45723	16371.324
73.8896	2.46017	16390.23
73.9897	2.46361	16412.996
74.0898	2.46748	16433.061
74.1899	2.47104	16454.66
74.29	2.47351	16474.699
74.3901	2.47658	16494.256
74.4902	2.480185	16513.447
74.5903	2.48456	16530.924
74.69043	2.48739	16551.031
74.7905	2.48969	16569.906
74.8906	2.49346	16590.65
74.9907	2.497381	16613.119
75.09082	2.49993	16632.594
75.1909	2.50355	16653.762
75.291	2.50594	16674.074
75.3911	2.51131	16696.018
75.4912	2.514133	16715.229
75.5913	2.5168	16735.93
75.6914	2.51957	16755.76
75.7915	2.52389	16775.027
75.8916	2.52584	16795.939
75.9917	2.53102	16816.123
76.0918	2.53269	16835.287
76.1919	2.53607	16855.346
76.292	2.53999	16875.559
76.39209	2.54382	16896.254
76.4922	2.54684	16917.803
76.5923	2.5502	16938.398
76.6924	2.55353	16959.027
76.79248	2.55818	16980.172
76.8926	2.56165	17005.842
76.9927	2.56435	17029.732
77.0928	2.56877	17052.533
77.1929	2.57211	17073.914
77.293	2.57554	17090.994
77.3931	2.5788	17108.52
77.4932	2.58242	17126.744
77.5933	2.584815	17146.957
77.6934	2.58798	17164.674
77.7935	2.59075	17181.566
77.8936	2.59487	17200.988
77.9937	2.59747	17218.5
78.09375	2.60102	17240.211
78.1938	2.60418	17260.871
78.2939	2.608031	17280.832
78.394	2.61109	17299.76
78.4941	2.6144	17320.092
78.5942	2.61778	17339.691
78.6943	2.62139	17363.404
78.7944	2.62517	17388.191
78.8945	2.63001	17414.805
78.9946	2.63246	17436.939
79.0947	2.63629	17456.373
79.1948	2.63923	17474.1
79.2949	2.64248	17490.746
79.39502	2.64401	17507.26
79.4951	2.64826	17524.65
79.5952	2.65188	17543.971
79.6953	2.65479	17562.996
79.79541	2.6576	17581.682
79.8955	2.6605	17600.82
79.9956	2.66324	17611.197
80.0957	2.66676	17627.125
80.1958	2.66891	17650.525
80.2959	2.67385	17674.246
80.396	2.67678	17694.928
80.4961	2.68015	17714.982
80.5962	2.68313	17736.244
80.6963	2.68668	17760.141
80.7964	2.6909	17780.549
80.8965	2.69347	17799.438
80.9966	2.69641	17818.881
81.09668	2.70134	17842.627
81.1968	2.70471	17866.365
81.2969	2.70869	17888.15
81.397	2.711895	17909.527
81.49707	2.71554	17930.551
81.5972	2.71795	17952.102
81.6973	2.72156	17971.035
81.7974	2.72481	17990.031
81.8975	2.72865	18007.449
81.9976	2.73175	18028.863
82.0977	2.73536	18046.408
82.1978	2.73785	18065.516
82.2979	2.74172	18086.473
82.3979	2.74541	18106.393
82.498	2.748251	18121.365
82.5981	2.75088	18139.049
82.6982	2.75396	18159.6
82.79834	2.75795	18182.195
82.8984	2.76013	18203.352
82.9985	2.76417	18227.754
83.0986	2.767843	18251.318
83.19873	2.77144	18270.697
83.2988	2.77455	18289.869
83.3989	2.77953	18309.416
83.499	2.78235	18327.887
83.5991	2.78491	18347.332
83.6992	2.78963	18366.482
83.7993	2.79152	18384.445
83.8994	2.79498	18401.182
83.9995	2.79806	18420.037
84.0996	2.80189	18439.348
84.1997	2.80474	18460.195
84.2998	2.80744	18479.641
84.3999	2.81067	18500.713
84.5	2.81478	18521.678
84.6001	2.818	18540.484
84.7002	2.82107	18560.83
84.8003	2.82476	18579.904
84.9004	2.82824	18599.201
85.0005	2.83059	18619.416
85.1006	2.8339	18639.201
85.2007	2.83778	18658.131
85.3008	2.84084	18677.193
85.4009	2.8449	18697.209
85.501	2.84842	18716.287
85.6011	2.85161	18736.168
85.7012	2.85527	18757.635
85.80127	2.85623	18776.348
85.9014	2.86218	18798.283
86.0015	2.865067	18819.93
86.1016	2.86861	18839.311
86.20166	2.87181	18858.631
86.3018	2.87478	18876.654
86.4019	2.87915	18897.211
86.502	2.88149	18913.574
86.6021	2.88449	18932.305
86.7021	2.88718	18950.734
86.8022	2.89142	18970.652
86.9023	2.89442	18990.604
87.0024	2.89801	19011.355
87.1025	2.900806	19028.82
87.2026	2.90361	19048.215
87.3027	2.90734	19067.828
87.4028	2.91131	19088.447
87.50293	2.91469	19107.828
87.603	2.91781	19128.568
87.7031	2.92158	19146.896
87.8032	2.92453	19166.963
87.90332	2.92836	19186.01
88.0034	2.93025	19204.916
88.1035	2.93507	19226.451
88.2036	2.936	19246.178
88.3037	2.9422	19268.594
88.4038	2.94484	19286.092
88.5039	2.94757	19306.332
88.604	2.95061	19325.072
88.7041	2.954185	19343.92
88.8042	2.95752	19365.42
88.9043	2.96081	19383.967
89.0044	2.9651	19406.211
89.1045	2.968	19424.072
89.20459	2.9719	19441.65
89.3047	2.97443	19460.912
89.4048	2.976501	19481.744
89.5049	2.9813	19501.461
89.60498	2.98512	19518.723
89.7051	2.98758	19536.072
89.8052	2.99072	19556.111
89.9053	2.994308	19575.186
90.0054	2.99669	19596.07
90.1055	3.00099	19616.033
90.2056	3.00483	19635.609
90.3057	3.00718	19656.744
90.4058	3.01092	19678.328
90.5059	3.01357	19697.307
90.606	3.01766	19719.307
90.7061	3.0195	19735.506
90.8062	3.02497	19754.342
90.90625	3.02816	19773.424
91.0063	3.03106	19791.148
91.1064	3.03468	19809.914
91.2065	3.0384	19827.994
91.3066	3.04147	19850.658
91.4067	3.045851	19870.465
91.5068	3.04793	19890.527
91.6069	3.05066	19909.053
91.707	3.05448	19928.801
91.8071	3.05786	19946.879
91.9072	3.06059	19966.139
92.0073	3.06536	19987.975
92.1074	3.06849	20005.785
92.20752	3.070873	20026.369
92.3076	3.0752	20045.375
92.4077	3.07745	20065.111
92.5078	3.081	20085.27
92.60791	3.08518	20103.395
92.708	3.0876	20122.658
92.8081	3.0915	20142.459
92.9082	3.09493	20162.111
93.0083	3.09747	20179.592
93.1084	3.10101	20196.973
93.2085	3.1043	20216.445
93.3086	3.10754	20236.863
93.4087	3.11136	20257.664
93.5088	3.113842	20275.354
93.6089	3.11804	20296.486
93.709	3.12095	20314.695
93.8091	3.12514	20335.068
93.90918	3.12904	20359.25
94.0093	3.13213	20381.654
94.1094	3.13623	20400.357
94.2095	3.13949	20421.275
94.30957	3.14332	20439.514
94.4097	3.14624	20459.086
94.5098	3.14974	20480.715
94.6099	3.15241	20498.004
94.71	3.15651	20515.959
94.8101	3.15813	20533.754
94.9102	3.16213	20550.955
95.0103	3.16535	20569.895
95.1104	3.16855	20588.242
95.2104	3.17287	20607.611
95.3105	3.17534	20626.744
95.4106	3.179	20645.785
95.5107	3.18216	20665.127
95.61084	3.18514	20684.02
95.7109	3.1893	20705.721
95.811	3.19187	20724.027
95.9111	3.19584	20743.432
96.01123	3.19831	20760.033
96.1113	3.20241	20778.869
96.2114	3.2051	20796.848
96.3115	3.2077	20816.105
96.4116	3.21192	20833.986
96.5117	3.21571	20852.498
96.6118	3.21839	20871.971
96.7119	3.22152	20891.637
96.812	3.22521	20912.068
96.9121	3.22905	20931.002
97.0122	3.23271	20950.154
97.1123	3.23529	20968.924
97.2124	3.23807	20987.508
97.3125	3.24253	21007.303
97.4126	3.24573	21023.852
97.5127	3.24879	21042.113
97.6128	3.251642	21061.834
97.7129	3.25484	21081.023
97.813	3.25686	21100.775
97.9131	3.2628	21122.002
98.0132	3.26581	21142.844
98.1133	3.26893	21163.043
98.2134	3.27248	21180.82
98.3135	3.27448	21200.396
98.4136	3.279388	21221.498
98.5137	3.28215	21239.402
98.61377	3.28422	21255.475
98.7139	3.28811	21274.744
98.814	3.29176	21291.908
98.9141	3.29517	21311.396
99.01416	3.29828	21330.906
99.1143	3.302732	21350.189
99.2144	3.304872	21369.037
99.3145	3.30879	21387.346
99.4146	3.31193	21408.551
99.5146	3.31522	21426.338
99.6147	3.319186	21445.969
99.7148	3.32152	21462.535
99.8149	3.32489	21482.855
99.915	3.32807	21503.561
100.015	3.33162	21520.799
100.115	3.33479	21538.461
100.215	3.33777	21555.896
100.315	3.34155	21573.5
100.416	3.3447	21592.641
100.516	3.347677	21610.227
100.616	3.35137	21627.533
100.716	3.35483	21644.885
100.816	3.35719	21664.207
100.916	3.36314	21692.572
101.016	3.36723	21726.602
101.116	3.37077	21747.936
101.216	3.37414	21766.502
101.316	3.37806	21783.957
101.4165	3.38035	21798.711
101.5166	3.38322	21814.611
101.6167	3.38565	21829.645
101.7168	3.38904	21847.002
101.817	3.39296	21863.463
101.917	3.39465	21880.365
102.017	3.39959	21897.154
102.117	3.39978	21915.25
102.217	3.40505	21931.854
102.317	3.40754	21948.768
102.417	3.41234	21968.391
102.518	3.41568	21986.49

Data Acquisition						Time:	106.143	s	6/4/2018 2:10:58 PM
Time	MTS 4 Displacement 4	MTS 4 Force 4
s	mm	N
102.618	3.41804	22004.291
102.718	3.42106	22024.174
102.818	3.42451	22041.596
102.918	3.42892	22058.176
103.018	3.4309	22076.254
103.118	3.43477	22093.471
103.218	3.43768	22113.563
103.318	3.441453	22132.945
103.418	3.44433	22151.137
103.519	3.44865	22171.959
103.619	3.45116	22190.67
103.719	3.4551	22207.387
103.819	3.45839	22226.295
103.919	3.46126	22243.84
104.019	3.46443	22260.713
104.119	3.46801	22277.902
104.219	3.47043	22295.814
104.319	3.47467	22315.123
104.419	3.47719	22332.289
104.52	3.48071	22349.24
104.62	3.4847	22369.455
104.72	3.48768	22389.682
104.82	3.49077	22409.057
104.92	3.49542	22425.143
105.02	3.49808	22443.949
105.12	3.50052	22461.215
105.22	3.50494	22477.02
105.32	3.50769	22494.174
105.42	3.51081	22510.014
105.521	3.5146	22527.592
105.621	3.51818	22541.584
105.7207	3.51948	22557.014
105.8208	3.52451	22575.191
105.9209	3.52823	22595.053
106.021	3.53193	22538.15
106.121	3.53602	22470.467