File: dublin_poster_plots/Tensile Tests - Quenched Samples 20180604/BLPX-M1-Q045-05_20180604/specimen.dat
MTS793|MPT|ENU|1|2|.|/|:|1|0|0|A

Data Acquisition						Time:	65.3623	s	6/4/2018 4:25:21 PM
Time	MTS 4 Displacement 4	MTS 4 Force 4
s	mm	N
0.114746	0.000151992	-13.8098
0.214844	0.00165999	-12.442
0.314941	0.00307262	-11.6635
0.415039	0.00766814	-10.4913
0.515137	0.0102997	-7.26301
0.615234	0.0139624	-4.88395
0.715332	0.0179946	-3.326591
0.81543	0.0212312	0.666175
0.915527	0.0248343	3.42904
1.015625	0.0280589	6.21025
1.11572	0.0315517	9.04026
1.21582	0.0347018	12.5878
1.315918	0.0380695	16.3699
1.41602	0.0405431	21.8616
1.51611	0.0440031	26.4283
1.61621	0.047192	31.5306
1.71631	0.0510931	37.3044
1.81641	0.0541061	42.7295
1.9165	0.0571579	47.2444
2.0166	0.061059	54.3946
2.1167	0.0640512	61.5806
2.2168	0.0680774	70.262
2.31689	0.0712365	76.8347
2.41699	0.0741422	84.7294
2.51709	0.0772148	94.8385
2.61719	0.0817537	102.3802
2.71729	0.0849962	111.281
2.81738	0.0879228	119.934
2.91748	0.0911474	129.446
3.01758	0.0943422	137.99
3.11768	0.0979364	149.449
3.21777	0.100517	159.575
3.31787	0.103945	169.479
3.41797	0.1070559	180.4566
3.51807	0.110647	190.464
3.61816	0.113624	203.028
3.71826	0.11602	215.749
3.81836	0.120777	226.9487
3.918457	0.123015	240.083
4.01855	0.126943	251.252
4.11865	0.130144	264.707
4.21875	0.133327	278.896
4.31885	0.136629	289.745
4.41895	0.139743	304.639
4.519043	0.143927	316.9274
4.61914	0.146776	331.2735
4.71924	0.149566	345.173
4.81934	0.153664	359.262
4.91943	0.156453	371.599
5.01953	0.159815	387.994
5.11963	0.163668	403.085
5.21973	0.165883	420.53
5.31982	0.169471	433.296
5.41992	0.172523	449.211
5.52002	0.175899	466.525
5.62012	0.179657	481.565
5.72021	0.182444	497.156
5.82031	0.186014	512.533
5.92041	0.189766	529.483
6.02051	0.1924485	546.627
6.12061	0.195277	561.132
6.2207	0.199431	577.054
6.3208	0.202116	592.762
6.4209	0.205877	610.815
6.521	0.208426	626.312
6.62109	0.211388	643.053
6.72119	0.215268	661.271
6.82129	0.218832	678.752
6.92139	0.2233237	696.727
7.02148	0.226682	714.328
7.121582	0.229254	732.306
7.22168	0.234491	747.039
7.32178	0.236633	763.409
7.421875	0.240049	781.2229
7.52197	0.2426	799.629
7.62207	0.245509	815.661
7.722168	0.249529	830.71
7.82227	0.2536	848.841
7.92236	0.2565	868.581
8.02246	0.258926	884.515
8.12256	0.264233	899.486
8.22266	0.266334	914.375
8.32275	0.268278	935.87
8.42285	0.272781	952.852
8.52295	0.277072	970.915
8.62305	0.279406	989.065
8.72314	0.283739	1005.03
8.82324	0.286311	1023.18
8.92334	0.289816	1042.54
9.02344	0.292662	1057.79
9.12354	0.295934	1074.78
9.22363	0.300676	1092.58
9.32373	0.3030926	1111.15
9.42383	0.3066957	1128.16
9.52393	0.309476	1130.35
9.62402	0.313175	1145.77
9.72412	0.316694	1163.5
9.82422	0.319371	1181.11
9.92432	0.323531	1199.41
10.0244	0.326452	1218.6
10.1245	0.32962	1237.52
10.2246	0.332847	1255.19
10.3247	0.335893	1273.4
10.4248	0.339869	1293.7
10.5249	0.343257	1311.58
10.625	0.3462702	1329.76
10.7251	0.350073	1346.46
10.8252	0.353318	1366.25
10.9253	0.3566891	1383.31
11.0254	0.359255	1400.68
11.1255	0.363544	1418.99
11.2256	0.367263	1435.57
11.3257	0.369856	1453.681
11.4258	0.375041	1472.88
11.5259	0.375977	1490.37
11.626	0.379971	1510.097
11.7261	0.383788	1528.64
11.8262	0.387001	1546.78
11.92627	0.3909409	1566.18
12.0264	0.39283	1574
12.1265	0.396296	1590.67
12.2266	0.400698	1610.57
12.32666	0.403836	1628.75
12.4268	0.406623	1648.43
12.5269	0.411138	1666.85
12.627	0.413033	1685.62
12.7271	0.416735	1704.14
12.8271	0.419945	1722.3
12.9272	0.422999	1739.3
13.0273	0.42679	1756.9
13.1274	0.430286	1775.22
13.2275	0.433406	1793.05
13.3276	0.435713	1812.87
13.4277	0.44007	1833.66
13.5278	0.4442811	1848.1
13.62793	0.447312	1863.215
13.728	0.450316	1878.48
13.8281	0.453433	1895.97
13.9282	0.456035	1914.29
14.02832	0.460148	1934.53
14.1284	0.464049	1954.61
14.2285	0.4679054	1973.64
14.3286	0.469524	1989.72
14.4287	0.473177	2008.92
14.5288	0.476182	2026.91
14.6289	0.47946	2046.14
14.729	0.483897	2065.27
14.8291	0.487286	2083.16
14.9292	0.490472	2098.81
15.0293	0.493482	2116.49
15.1294	0.497365	2134.44
15.2295	0.500959	2152.47
15.32959	0.503352	2172.04
15.4297	0.506347	2189.83
15.5298	0.511906	2208.44
15.6299	0.512388	2224.64
15.72998	0.516775	2245.31
15.8301	0.520653	2267.427
15.9302	0.524715	2288.95
16.0303	0.527999	2306.9
16.1304	0.531518	2319.64
16.2305	0.5351305	2337.12
16.3306	0.539753	2356.05
16.4307	0.541177	2372.96
16.5308	0.545031	2390.08
16.6309	0.547972	2408.11
16.731	0.551739	2425.6
16.8311	0.553662	2445.33
16.9312	0.557768	2465.47
17.03125	0.5607903	2481.65
17.1313	0.565001	2499.354
17.2314	0.567684	2514.88
17.3315	0.5700618	2532.92
17.4316	0.574377	2555.22
17.5317	0.578558	2575.32
17.6318	0.582626	2597.28
17.7319	0.5856216	2615.18
17.832	0.590953	2635.1
17.9321	0.592524	2650.36
18.0322	0.595802	2668.58
18.1323	0.600284	2688.91
18.2324	0.604081	2714.36
18.33252	0.608942	2741.48
18.4326	0.612205	2764.04
18.5327	0.616729	2783.949
18.6328	0.621939	2806.05
18.73291	0.628665	2849.01
18.833	0.6347388	2885.21
18.9331	0.638014	2903.79
19.0332	0.641343	2918.07
19.1333	0.644681	2932.5
19.2334	0.646403	2949.25
19.3335	0.6501019	2964.25
19.4336	0.653106	2980.75
19.5337	0.655442	2996.43
19.6338	0.659007	3012.61
19.7339	0.662372	3024.34
19.834	0.6659	3040.99
19.9341	0.667885	3057.92
20.03418	0.671518	3075.82
20.1343	0.674635	3095.2
20.2344	0.676936	3110.55
20.3345	0.6808579	3127.53
20.43457	0.684026	3145.73
20.5347	0.685778	3163.15
20.6348	0.689605	3179.82
20.7349	0.691348	3196.39
20.835	0.6955564	3215.03
20.9351	0.699103	3232.63
21.0352	0.701523	3251.25
21.1353	0.704762	3269.574
21.2354	0.707695	3283.96
21.3354	0.711802	3302.7
21.4355	0.713697	3321.64
21.5356	0.717586	3336.66
21.6357	0.720361	3352.48
21.73584	0.722888	3367.928
21.8359	0.726202	3384.57
21.936	0.73058	3402.876
22.0361	0.734165	3422.7
22.13623	0.735873	3439.59
22.2363	0.739932	3458.29
22.3364	0.742653	3476.71
22.4365	0.7465601	3497.69
22.5366	0.749362	3515.17
22.6367	0.753325	3532.32
22.7368	0.756139	3551.03
22.8369	0.759432	3567.83
22.937	0.761935	3588.34
23.0371	0.766286	3605.415
23.1372	0.7691443	3618.82
23.2373	0.77253	3634.57
23.3374	0.776112	3655.22
23.4375	0.779521	3671.949
23.5376	0.782439	3691.44
23.6377	0.784636	3708.95
23.7378	0.78865	3727.37
23.8379	0.791639	3744.21
23.938	0.794181	3757.71
24.0381	0.797319	3775.39
24.1382	0.8010447	3793.74
24.2383	0.805277	3811.31
24.3384	0.807279	3828.44
24.4385	0.811705	3848.87
24.5386	0.813791	3868.37
24.6387	0.8174479	3884.17
24.73877	0.820711	3902.88
24.8389	0.8236289	3919.1
24.939	0.827441	3938.2
25.0391	0.82987	3955.46
25.13916	0.833237	3976.1
25.2393	0.8361131	3993.2
25.3394	0.839466	4013.115
25.4395	0.8430928	4031.54
25.5396	0.846663	4052.62
25.6396	0.849235	4069.91
25.7397	0.853252	4089.07
25.8398	0.856423	4105.2
25.9399	0.86045	4123.44
26.04	0.86377	4141.769
26.1401	0.866407	4161.18
26.2402	0.869435	4180.74
26.3403	0.873205	4199.74
26.44043	0.876716	4218.79
26.5405	0.879917	4237.84
26.6406	0.883329	4256.48
26.7407	0.885883	4275.26
26.84082	0.889957	4296
26.9409	0.89274	4317.25
27.041	0.895873	4340.12
27.1411	0.901017	4359.67
27.2412	0.905609	4378.21
27.3413	0.908163	4396.19
27.4414	0.910714	4413.92
27.5415	0.9150207	4432.63
27.6416	0.917652	4452.65
27.7417	0.920293	4469.99
27.8418	0.923777	4485.71
27.9419	0.927556	4505.32
28.042	0.929832	4525.7
28.14209	0.934416	4545.37
28.2422	0.937051	4567.23
28.3423	0.941327	4585.24
28.4424	0.943881	4604.83
28.54248	0.947762	4623.42
28.6426	0.950861	4641.4
28.7427	0.954276	4660.97
28.8428	0.957528	4678.252
28.9429	0.960261	4699.82
29.043	0.963658	4719.08
29.1431	0.968084	4736.68
29.2432	0.970957	4755.67
29.3433	0.97287	4774.04
29.4434	0.976971	4792.293
29.5435	0.979856	4811.917
29.6436	0.9827286	4832.44
29.7437	0.98553	4851.9
29.84375	0.99	4871.66
29.9438	0.99425	4886.81
30.0439	0.997722	4905.7
30.144	1.000905	4925.7
30.2441	1.00398	4945.37
30.3442	1.00726	4964.18
30.4443	1.010704	4986.31
30.5444	1.01321	5005.9
30.6445	1.01666	5026.02
30.7446	1.02084	5044.32
30.8447	1.02467	5062.45
30.9448	1.02661	5082.39
31.0449	1.03058	5101.41
31.14502	1.03419	5114.7
31.2451	1.03571	5135
31.3452	1.03975	5155.44
31.4453	1.04275	5173.72
31.54541	1.04648	5192.68
31.6455	1.05024	5212.07
31.7456	1.053369	5230.15
31.8457	1.05653	5250.17
31.9458	1.05998	5272.14
32.0459	1.06301	5290.68
32.146	1.06636	5309.24
32.2461	1.07128	5328.45
32.3462	1.07281	5346.58
32.4463	1.07595	5366.96
32.5464	1.07995	5385.65
32.6465	1.08351	5405.72
32.7466	1.08771	5424.54
32.84668	1.09064	5445.57
32.9468	1.0936	5463.17
33.0469	1.09642	5480.65
33.147	1.10114	5498.77
33.24707	1.10284	5517.97
33.3472	1.106897	5539.13
33.4473	1.1102	5559.375
33.5474	1.1147	5579.32
33.6475	1.11869	5597.93
33.7476	1.1208	5616.31
33.8477	1.12275	5631.15
33.9478	1.12615	5647.9
34.0479	1.12914	5664.08
34.1479	1.13365	5686.97
34.248	1.136452	5705.811
34.3481	1.139918	5723.89
34.4482	1.14317	5742.64
34.54834	1.14629	5762.11
34.6484	1.1484	5780.86
34.7485	1.15366	5803.2
34.8486	1.157105	5823.23
34.94873	1.15958	5845.76
35.0488	1.16394	5864.53
35.1489	1.167497	5883.53
35.249	1.17179	5904.45
35.3491	1.1739	5921.397
35.4492	1.17713	5940.92
35.5493	1.18104	5958.76
35.6494	1.18395	5977.61
35.7495	1.18732	5996.87
35.8496	1.190275	6017.85
35.9497	1.19385	6038.64
36.0498	1.19756	6057.501
36.1499	1.20059	6076.14
36.25	1.20348	6093.853
36.3501	1.206997	6111.915
36.4502	1.21041	6132.87
36.5503	1.21372	6151.99
36.6504	1.21688	6171.87
36.7505	1.21965	6191.62
36.8506	1.22338	6209.06
36.9507	1.22769	6227.01
37.0508	1.23137	6247.26
37.1509	1.23411	6267.95
37.251	1.23611	6285.97
37.3511	1.23918	6303.17
37.4512	1.243329	6319.28
37.55127	1.2474	6341
37.6514	1.25053	6360.05
37.7515	1.25367	6380.17
37.8516	1.25713	6398.26
37.95166	1.26121	6417.9
38.0518	1.26282	6438.103
38.1519	1.267162	6456.375
38.252	1.27039	6474.97
38.3521	1.27376	6494.27
38.4521	1.27716	6515.16
38.5522	1.280874	6536.67
38.6523	1.28427	6557.67
38.7524	1.28713	6578.08
38.8525	1.29039	6598.686
38.9526	1.29453	6615.09
39.0527	1.29732	6634.51
39.1528	1.30113	6653.7
39.25293	1.304546	6677.61
39.353	1.30774	6698.64
39.4531	1.31083	6717.27
39.5532	1.31475	6736.94
39.65332	1.3178	6755.63
39.7534	1.32104	6775.03
39.8535	1.32371	6795.894
39.9536	1.32767	6812.86
40.0537	1.33102	6834.916
40.1538	1.33416	6852.51
40.2539	1.33797	6869.51
40.354	1.34116	6889.25
40.4541	1.34356	6908.564
40.5542	1.3479	6931.88
40.6543	1.35121	6951.11
40.7544	1.35338	6968.42
40.8545	1.35853	6989.46
40.95459	1.36141	7008.8
41.0547	1.36421	7027.87
41.1548	1.36723	7044.77
41.2549	1.3713	7065.5
41.35498	1.37427	7085.99
41.4551	1.377821	7106.72
41.5552	1.38067	7126.05
41.6553	1.38389	7147.33
41.7554	1.388675	7166.083
41.8555	1.39258	7186.55
41.9556	1.39564	7206.95
42.0557	1.39875	7224.58
42.1558	1.40125	7244.68
42.2559	1.40552	7264.53
42.356	1.4079	7284.43
42.4561	1.41211	7301.06
42.5562	1.415503	7322.085
42.65625	1.41761	7339.71
42.7563	1.42088	7360.19
42.8564	1.42443	7380.27
42.9565	1.42848	7401.22
43.0566	1.43117	7420.26
43.1567	1.43456	7438.97
43.2568	1.43856	7458.32
43.3569	1.44223	7477.708
43.457	1.4448	7497.564
43.5571	1.44787	7517.49
43.6572	1.45137	7536.89
43.7573	1.45589	7553.79
43.8574	1.45795	7575.3
43.95752	1.46166	7593.51
44.0576	1.46713	7599.25
44.1577	1.46793	7618.05
44.2578	1.47192	7637.36
44.35791	1.47542	7655.28
44.458	1.47965	7675.437
44.5581	1.482451	7690.55
44.6582	1.48474	7707.89
44.7583	1.4881	7726.731
44.8584	1.49201	7745.813
44.9585	1.49533	7764.8
45.0586	1.49831	7785.83
45.1587	1.502	7803.72
45.2588	1.50491	7822.771
45.3589	1.5083	7838.936
45.459	1.51186	7860.02
45.5591	1.51536	7879.249
45.65918	1.51792	7898.998
45.7593	1.52199	7919.93
45.8594	1.524207	7938.35
45.9595	1.52819	7957.68
46.05957	1.53177	7978.51
46.1597	1.53447	7999.01
46.2598	1.53849	8018.19
46.3599	1.54146	8037.98
46.46	1.54392	8053.27
46.5601	1.54903	8074.78
46.6602	1.55125	8093.689
46.7603	1.55462	8112.12
46.8604	1.5581	8132.82
46.9604	1.56014	8153.11
47.0605	1.56496	8171.14
47.1606	1.56799	8189.62
47.2607	1.57205	8210.29
47.36084	1.57465	8229.15
47.4609	1.5782	8249.09
47.561	1.58155	8267.21
47.6611	1.58558	8276.876
47.76123	1.5878	8295.25
47.8613	1.59219	8307.89
47.9614	1.59484	8325.74
48.0615	1.59755	8346.93
48.1616	1.60166	8361.126
48.2617	1.60557	8378.52
48.3618	1.60898	8399.97
48.4619	1.61167	8414.51
48.562	1.61508	8431.06
48.6621	1.61864	8419.49
48.7622	1.62224	8439.53
48.8623	1.62479	8460.1
48.9624	1.628691	8479.14
49.0625	1.63259	8497.79
49.1626	1.63604	8503.01
49.2627	1.63901	8520.51
49.3628	1.64171	8538.94
49.4629	1.64534	8559.58
49.563	1.64776	8570.083
49.6631	1.65163	8584.61
49.7632	1.65427	8604.98
49.8633	1.658985	8624.14
49.9634	1.66126	8641.62
50.0635	1.66466	8660.66
50.1636	1.6687	8680.81
50.2637	1.67188	8701.67
50.36377	1.67433	8720.54
50.4639	1.67864	8741.7
50.564	1.682061	8763.74
50.6641	1.68463	8783.792
50.76416	1.68811	8801.91
50.8643	1.69357	8814.666
50.9644	1.69538	8824.3
51.0645	1.69791	8846.09
51.1646	1.70188	8865.04
51.2646	1.705882	8886.2
51.3647	1.70967	8900.02
51.4648	1.71377	8918.65
51.5649	1.7159	8937.1
51.665	1.71933	8954.86
51.7651	1.72282	8974.91
51.8652	1.72688	8994.04
51.9653	1.72938	9013.21
52.06543	1.73268	9028.87
52.1655	1.73602	9044.51
52.2656	1.74035	9063.44
52.3657	1.743114	9080.18
52.46582	1.7482	9097.92
52.5659	1.75026	9117.19
52.666	1.75312	9131.68
52.7661	1.75606	9147.98
52.8662	1.75825	9166.91
52.9663	1.762	9185.48
53.0664	1.76531	9203.74
53.1665	1.76879	9171.373
53.2666	1.772517	9191.06
53.3667	1.77546	9203.67
53.4668	1.77968	9223.5
53.5669	1.78267	9235.29
53.667	1.7864	9246.91
53.76709	1.78904	9266.8
53.8672	1.79193	9285.52
53.9673	1.796478	9305.291
54.0674	1.79902	9291.11
54.16748	1.80336	9218.45
54.2676	1.80783	9231.875
54.3677	1.81026	9250.46
54.4678	1.8139	9268.56
54.5679	1.81842	9278.248
54.668	1.821813	9284.52
54.7681	1.82431	9303.89
54.8682	1.82717	9319.78
54.9683	1.830554	9337.52
55.0684	1.8339	9352.83
55.1685	1.83817	9370.93
55.2686	1.84093	9349.15
55.3687	1.84471	9366.16
55.46875	1.8466	9385.8
55.5688	1.8498	9405.1
55.6689	1.85356	9411.83
55.769	1.856035	9428.64
55.8691	1.85985	9446.91
55.9692	1.86393	9437.376
56.0693	1.86672	9436.69
56.1694	1.86984	9453.96
56.2695	1.87286	9471.53
56.3696	1.87697	9487.72
56.4697	1.87973	9508.19
56.5698	1.88249	9525.28
56.6699	1.88667	9400.97
56.77002	1.88896	9414.82
56.8701	1.89268	9431.8
56.9702	1.89616	9415.82
57.0703	1.90014	9433.86
57.17041	1.9027	9449.18
57.2705	1.90641	9467.11
57.3706	1.90862	9487.459
57.4707	1.91291	9505.86
57.5708	1.91623	9526.18
57.6709	1.92016	9542.77
57.771	1.92253	9544.64
57.8711	1.92908	9249.43
57.9712	1.93438	9175.01
58.0713	1.93824	9195.26
58.1714	1.94198	9214.73
58.2715	1.94471	9230.95
58.3716	1.94801	9187.72
58.47168	1.95291	9095.6
58.5718	1.95589	9105.001
58.6719	1.95808	9123.87
58.772	1.9618	9134.5
58.87207	1.96652	8957.52
58.9722	1.970166	8958.57
59.0723	1.9736	8979.7
59.1724	1.97714	8987.76
59.2725	1.98007	9005.16
59.3726	1.98289	9023.26
59.4727	1.98671	9017.06
59.5728	1.99047	8919.14
59.6729	1.99342	8938.53
59.7729	1.99644	8958.06
59.873	1.9998	8976.41
59.9731	2.00385	8992.98
60.0732	2.00571	9010.4
60.17334	2.00933	9028.93
60.2734	2.01137	9042.6
60.3735	2.01434	9061.71
60.4736	2.01764	9078.15
60.57373	2.01999	9066.48
60.6738	2.02686	8815.01
60.7739	2.03064	8836.94
60.874	2.03527	8855.51
60.9741	2.03803	8873.93
61.0742	2.04032	8844.18
61.1743	2.04242	8861.39
61.2744	2.04666	8879.27
61.3745	2.05241	8614.4
61.4746	2.05669	8606.99
61.5747	2.059546	8624.78
61.6748	2.06244	8638.1
61.7749	2.06573	8652.458
61.875	2.06781	8665.43
61.9751	2.07013	8680.583
62.0752	2.073452	8697.06
62.1753	2.07641	8711.82
62.2754	2.08095	8493.53
62.3755	2.08465	8528.01
62.4756	2.08921	8547.25
62.5757	2.0907	8564.3
62.6758	2.09521	8582.08
62.7759	2.09829	8597.125
62.876	2.1004	8612.48
62.9761	2.10352	8628.25
63.0762	2.106431	8644.78
63.17627	2.10993	8660.76
63.2764	2.112335	8676.97
63.3765	2.11547	8692.87
63.4766	2.11827	8709.17
63.57666	2.12146	8724.08
63.6768	2.12437	8742.26
63.7769	2.12755	8755.97
63.877	2.13042	8773.04
63.9771	2.13439	8791.03
64.0771	2.13734	8806.7
64.1772	2.14031	8821.62
64.2773	2.14351	8840.35
64.3774	2.14644	8854.61
64.4775	2.14947	8870.94
64.5776	2.15257	8886.957
64.6777	2.15645	8902.94
64.7778	2.15852	8919.68
64.87793	2.16119	8932.3
64.978	2.16596	8949.07
65.0781	2.1692	8964.78
65.1782	2.1709	8980.38
65.27832	2.1733	8997.62