File: dublin_poster_plots/Tensile Tests - Quenched Samples 20180604/BLPX-M1-Q015-02_20180604/specimen.dat
MTS793|MPT|ENU|1|2|.|/|:|1|0|0|A

Data Acquisition						Time:	102.5166	s	6/4/2018 2:58:45 PM
Time	MTS 4 Displacement 4	MTS 4 Force 4
s	mm	N
0.114258	-0.000345707	-82.1823
0.214355	0.003400445	-58.6121
0.314453	0.00669658	-35.1777
0.414551	0.0106215	-10.6238
0.514648	0.0127375	11.3886
0.614746	0.01694262	36.5533
0.714844	0.0198305	62.207
0.814941	0.023815	87.1478
0.915039	0.0267833	111.152
1.01514	0.0297397	136.694
1.11523	0.0335902	162.355
1.215332	0.0363082	185.403
1.31543	0.03913343	209.414
1.41553	0.0435978	234.133
1.515625	0.047034	258.274
1.61572	0.0495464	283.617
1.71582	0.052768	310.28
1.815918	0.0566065	336.586
1.91602	0.0607699	359.726
2.01611	0.0623494	382.675
2.11621	0.0659704	408.867
2.21631	0.069496	435.674
2.31641	0.0730723	460.638
2.4165	0.0759184	486.349
2.5166	0.0801623	512.269
2.6167	0.0826329	535.957
2.7168	0.0868231	562.109
2.81689	0.0894248	586.441
2.91699	0.0921816	612.594
3.01709	0.0961959	636.4751
3.11719	0.0987619	661.8139
3.21729	0.102249	689.462
3.31738	0.105831	714.004
3.41748	0.108737	740.032
3.51758	0.1111865	766.068
3.61768	0.116315	790.632
3.71777	0.119144	814.971
3.81787	0.1232326	840.633
3.91797	0.126013	866.694
4.01807	0.128976	891
4.11816	0.132316	915.156
4.21826	0.135064	940.191
4.31836	0.139165	966.231
4.418457	0.142449	991.834
4.51855	0.146657	1018.1
4.61865	0.148249	1039.9
4.71875	0.152126	1064.44
4.81885	0.155491	1089.42
4.91895	0.159231	1116.33
5.019043	0.161985	1143.09
5.11914	0.166428	1168.14
5.21924	0.168952	1192.78
5.31934	0.172597	1217.8
5.41943	0.175679	1240.99
5.51953	0.179461	1267.44
5.61963	0.182223	1292.99
5.71973	0.184971	1318.45
5.81982	0.189152	1342.13
5.91992	0.192109	1367.7
6.02002	0.196898	1393.33
6.12012	0.19899	1416.53
6.22021	0.202659	1445.49
6.32031	0.205618	1469.09
6.42041	0.208935	1493.06
6.52051	0.212309	1519.07
6.62061	0.215983	1543.28
6.7207	0.217974	1569.65
6.8208	0.2222985	1595.81
6.9209	0.226486	1618.709
7.021	0.228825	1643.25
7.12109	0.232646	1667.515
7.22119	0.236496	1692.35
7.32129	0.239167	1720.82
7.42139	0.242645	1745.087
7.52148	0.2455622	1770.7
7.621582	0.2494216	1795.12
7.72168	0.251898	1818.41
7.82178	0.255847	1844.194
7.921875	0.258732	1869.84
8.02197	0.261623	1892.65
8.12207	0.264981	1917.03
8.222168	0.269452	1943.58
8.32227	0.272888	1970.41
8.42236	0.27501	1992.813
8.52246	0.279146	2022.7
8.62256	0.281978	2047.73
8.72266	0.285515	2071.49
8.82275	0.289294	2096.67
8.92285	0.291985	2120.02
9.02295	0.295913	2143.82
9.12305	0.299132	2167.79
9.22314	0.302303	2194.332
9.32324	0.306851	2221.072
9.42334	0.30888	2246.1
9.52344	0.312498	2269.35
9.62354	0.315258	2292.23
9.72363	0.317684	2317.59
9.82373	0.3218621	2342
9.92383	0.3254205	2367.04
10.0239	0.329337	2390.67
10.124	0.333101	2414.45
10.2241	0.335261	2439.78
10.3242	0.338188	2466.312
10.4243	0.342944	2490.07
10.5244	0.345796	2514.407
10.6245	0.348979	2537.87
10.7246	0.35201	2564.77
10.8247	0.354877	2588.187
10.9248	0.358647	2614.81
11.0249	0.362819	2638.23
11.125	0.365028	2663.86
11.2251	0.368771	2689.11
11.3252	0.372154	2716.49
11.4253	0.376523	2746.82
11.5254	0.38116	2771.67
11.6255	0.3829	2795.16
11.7256	0.387084	2819.62
11.8257	0.389367	2845.47
11.9258	0.393191	2870.45
12.0259	0.397468	2901.57
12.126	0.402901	2941.98
12.2261	0.407368	2973.15
12.3262	0.41087	3001.19
12.42627	0.414112	3025.16
12.5264	0.418645	3048.79
12.6265	0.420797	3073.408
12.7266	0.4248172	3096.88
12.82666	0.427753	3122.96
12.9268	0.430998	3146.2
13.0269	0.435081	3168.49
13.127	0.4378587	3191.25
13.2271	0.442454	3215.394
13.3271	0.444111	3240.94
13.4272	0.447226	3264.95
13.5273	0.450566	3288.29
13.6274	0.453967	3313.12
13.7275	0.456834	3337.02
13.8276	0.460738	3359.91
13.9277	0.463238	3383.74
14.0278	0.466537	3407.67
14.12793	0.470683	3429.75
14.228	0.472653	3454.07
14.3281	0.476578	3479.93
14.4282	0.479841	3503.1
14.52832	0.483435	3527.96
14.6284	0.486407	3550.31
14.7285	0.4894793	3575.053
14.8286	0.493187	3600.417
14.9287	0.497082	3625.03
15.0288	0.499675	3644.61
15.1289	0.503668	3669.66
15.229	0.506014	3694.792
15.3291	0.509265	3716.23
15.4292	0.512478	3740.86
15.5293	0.516638	3765.52
15.6294	0.519457	3790.03
15.7295	0.523594	3812.43
15.82959	0.525776	3839.51
15.9297	0.529641	3862.67
16.0298	0.532925	3887.804
16.1299	0.535959	3910.72
16.22998	0.539282	3934.51
16.3301	0.541806	3958
16.4302	0.545764	3982.64
16.5303	0.549892	4006.53
16.6304	0.552472	4029.56
16.7305	0.555769	4054.63
16.8306	0.559399	4078.27
16.9307	0.5631566	4101.72
17.0308	0.565717	4126.834
17.1309	0.569835	4152.13
17.231	0.572658	4173.64
17.3311	0.575778	4195.84
17.4312	0.578275	4218.49
17.53125	0.582385	4244.33
17.6313	0.584763	4266.73
17.7314	0.589022	4294.19
17.8315	0.592101	4315.2
17.9316	0.595373	4340.13
18.0317	0.5998224	4365.18
18.1318	0.602087	4389.05
18.2319	0.605094	4412.44
18.332	0.609368	4437.62
18.4321	0.611734	4463.13
18.5322	0.615403	4484.84
18.6323	0.618169	4509.82
18.7324	0.622734	4533.71
18.83252	0.624564	4554.51
18.9326	0.628263	4582.19
19.0327	0.631839	4605.104
19.1328	0.635809	4630.69
19.23291	0.638843	4654.88
19.333	0.64379	4678.02
19.4331	0.645575	4701.269
19.5332	0.6490469	4725.51
19.6333	0.651351	4748.99
19.7334	0.655839	4774.24
19.8335	0.65853	4799.21
19.9336	0.663042	4823.14
20.0337	0.6660223	4848.83
20.1338	0.668693	4872.9
20.2339	0.671324	4895.97
20.334	0.675181	4921.14
20.4341	0.678894	4942.74
20.53418	0.68208	4966.89
20.6343	0.685382	4988.43
20.7344	0.688979	5014.52
20.8345	0.691605	5039.34
20.93457	0.694904	5063.749
21.0347	0.699398	5086.73
21.1348	0.702885	5111.9
21.2349	0.706521	5134.92
21.335	0.708702	5161.3
21.4351	0.711209	5187.1
21.5352	0.715467	5209.8
21.6353	0.719541	5233.67
21.7354	0.722817	5257.74
21.8354	0.726062	5280.02
21.9355	0.727844	5304.94
22.0356	0.73106	5327.37
22.1357	0.735694	5351.74
22.23584	0.7381767	5374.96
22.3359	0.74271	5400.76
22.436	0.745571	5423.34
22.5361	0.74859	5445.85
22.63623	0.752422	5467.52
22.7363	0.755921	5492.563
22.8364	0.758958	5516.48
22.9365	0.762063	5542.187
23.0366	0.765714	5565.76
23.1367	0.768954	5590.74
23.2368	0.772831	5611.79
23.3369	0.774941	5635.39
23.437	0.7781	5656.88
23.5371	0.7823199	5680.9
23.6372	0.785282	5705.51
23.7373	0.788525	5729.62
23.8374	0.791553	5756.4
23.9375	0.795609	5779.98
24.0376	0.799942	5804.3
24.1377	0.801826	5829.28
24.2378	0.805408	5851.72
24.3379	0.808322	5876.48
24.438	0.8123666	5898.26
24.5381	0.8151263	5921.62
24.6382	0.818706	5944.104
24.7383	0.821185	5964.67
24.8384	0.826195	5995.02
24.9385	0.8297	6018.35
25.0386	0.832227	6042.49
25.1387	0.836042	6068
25.23877	0.83966	6089.69
25.3389	0.842261	6113.03
25.439	0.8459	6135.84
25.5391	0.849596	6160.19
25.63916	0.8523643	6180.89
25.7393	0.855643	6207.09
25.8394	0.859016	6231.2
25.9395	0.8633852	6254.06
26.0396	0.866327	6277.05
26.1396	0.870207	6299.47
26.2397	0.872558	6324.32
26.3398	0.876531	6350.09
26.4399	0.880298	6373.644
26.54	0.882903	6396.53
26.6401	0.885507	6421.58
26.7402	0.889349	6445.57
26.8403	0.8929193	6469.93
26.94043	0.89657	6493.32
27.0405	0.89927	6515.26
27.1406	0.902164	6540.21
27.2407	0.905451	6563.67
27.34082	0.908878	6588.09
27.4409	0.913045	6609.07
27.541	0.916705	6632.77
27.6411	0.91905	6656.16
27.7412	0.922567	6678.73
27.8413	0.926143	6704
27.9414	0.929773	6729.15
28.0415	0.932324	6751.35
28.1416	0.936186	6773.46
28.2417	0.939018	6796.14
28.3418	0.942788	6821.58
28.4419	0.94617	6841.54
28.542	0.951082	6863.68
28.64209	0.9523809	6890.167
28.7422	0.955623	6914.13
28.8423	0.959024	6938.27
28.9424	0.962639	6962.79
29.04248	0.965807	6985.41
29.1426	0.969172	7009.57
29.2427	0.97346	7030.36
29.3428	0.97585	7054.2
29.4429	0.979814	7079.457
29.543	0.982508	7102.26
29.6431	0.98708	7126.29
29.7432	0.989458	7146.93
29.8433	0.993645	7170.98
29.9434	0.996172	7197.1
30.0435	0.9999007	7219.814
30.1436	1.00234	7243.47
30.2437	1.00699	7264.98
30.34375	1.00849	7287.95
30.4438	1.0122	7312.11
30.5439	1.01605	7336.49
30.644	1.01827	7359.439
30.7441	1.02263	7383.56
30.8442	1.02612	7406.36
30.9443	1.02974	7429.55
31.0444	1.032865	7452.81
31.1445	1.0363	7477.06
31.2446	1.04047	7500.05
31.3447	1.0426	7523.542
31.4448	1.04564	7543.104
31.5449	1.049	7568.41
31.64502	1.05239	7594.22
31.7451	1.05711	7617.94
31.8452	1.06039	7642.07
31.9453	1.06283	7665.27
32.04541	1.06623	7687.81
32.1455	1.07037	7711.229
32.2456	1.07288	7734.27
32.3457	1.07606	7759.35
32.4458	1.07913	7783.32
32.5459	1.08275	7806.82
32.646	1.08675	7827.71
32.7461	1.08924	7850.1
32.8462	1.09338	7873.41
32.9463	1.095593	7897.7
33.0464	1.10006	7921.814
33.1465	1.10336	7941.55
33.2466	1.10604	7966.55
33.34668	1.1082	7991.14
33.4468	1.112929	8014.92
33.5469	1.11621	8036.48
33.647	1.11972	8059.65
33.74707	1.12279	8082.16
33.8472	1.12614	8106.86
33.9473	1.12967	8127.82
34.0474	1.13295	8151.127
34.1475	1.13572	8175.666
34.2476	1.139155	8201.06
34.3477	1.14336	8222.11
34.4478	1.14623	8244.52
34.5479	1.15057	8266.86
34.6479	1.15253	8292.32
34.748	1.15711	8313.54
34.8481	1.1591	8336.7
34.9482	1.162675	8359.5
35.04834	1.16596	8383.01
35.1484	1.16895	8405
35.2485	1.17261	8429.61
35.3486	1.17673	8449.26
35.44873	1.180318	8474.24
35.5488	1.18387	8498.7
35.6489	1.18654	8522.53
35.749	1.18918	8544.87
35.8491	1.19337	8566.582
35.9492	1.197058	8590.88
36.0493	1.20014	8612.709
36.1494	1.20361	8636.34
36.2495	1.20626	8656.84
36.3496	1.20906	8675.19
36.4497	1.21279	8702.67
36.5498	1.21556	8730.2
36.6499	1.219812	8755.62
36.75	1.22274	8776.89
36.8501	1.22592	8796.1
36.9502	1.22953	8821.53
37.0503	1.23275	8846.665
37.1504	1.23653	8867.48
37.2505	1.23988	8890.78
37.3506	1.2427	8914.15
37.4507	1.246208	8935.35
37.5508	1.24942	8959.05
37.6509	1.25364	8982.03
37.751	1.25611	9000.81
37.8511	1.25951	9022.9
37.9512	1.26346	9047.27
38.05127	1.26555	9071.334
38.1514	1.26964	9095.45
38.2515	1.27294	9121.623
38.3516	1.27642	9141.4
38.45166	1.27996	9167.09
38.5518	1.28323	9188.64
38.6519	1.28661	9211.24
38.752	1.28991	9233.59
38.8521	1.293	9253.8
38.9521	1.29594	9279.38
39.0522	1.29923	9301.21
39.1523	1.30364	9323.23
39.2524	1.306349	9346.93
39.3525	1.31114	9372.28
39.4526	1.31336	9393.44
39.5527	1.31662	9416.627
39.6528	1.32205	9438.34
39.75293	1.32374	9459.16
39.853	1.32658	9483.623
39.9531	1.33019	9508.05
40.0532	1.332894	9531.47
40.15332	1.33628	9554.28
40.2534	1.341337	9575.16
40.3535	1.34367	9596.71
40.4536	1.34605	9620.37
40.5537	1.34952	9643.32
40.6538	1.35321	9666.166
40.7539	1.355806	9688.41
40.854	1.35905	9712.97
40.9541	1.36307	9737.15
41.0542	1.36673	9757.6
41.1543	1.36947	9782.66
41.2544	1.37289	9805.98
41.3545	1.37679	9827.76
41.45459	1.38018	9849.09
41.5547	1.38214	9871.8
41.6548	1.38597	9893.94
41.7549	1.38949	9918.624
41.85498	1.39305	9943.17
41.9551	1.39704	9965.67
42.0552	1.39989	9987.14
42.1553	1.40313	10013.101
42.2554	1.406914	10035.526
42.3555	1.40925	10056.484
42.4556	1.413092	10079.877
42.5557	1.41709	10103.541
42.6558	1.42095	10123.275
42.7559	1.42284	10142.778
42.856	1.42633	10168.444
42.9561	1.431	10190.01
43.0562	1.43338	10214.321
43.15625	1.43686	10233.973
43.2563	1.43952	10259.175
43.3564	1.44301	10279.696
43.4565	1.44645	10304.104
43.5566	1.44953	10325.986
43.6567	1.45217	10347.259
43.7568	1.45714	10369.981
43.8569	1.45996	10395.824
43.957	1.46304	10417.521
44.0571	1.46654	10439.718
44.1572	1.47068	10463.834
44.2573	1.47317	10485.344
44.3574	1.47678	10505.265
44.45752	1.4798	10530.08
44.5576	1.48353	10552.518
44.6577	1.48718	10575.194
44.7578	1.489833	10596.901
44.85791	1.49395	10620.026
44.958	1.49645	10643.581
45.0581	1.49985	10665.384
45.1582	1.50406	10687.154
45.2583	1.50575	10709.201
45.3584	1.50998	10730.978
45.4585	1.51347	10756.41
45.5586	1.51668	10778.827
45.6587	1.5201	10797.447
45.7588	1.52397	10819.712
45.8589	1.52791	10842.788
45.959	1.53106	10864.838
46.0591	1.53423	10887.364
46.15918	1.53745	10911.082
46.2593	1.53992	10932.757
46.3594	1.54226	10953.436
46.4595	1.54613	10974.099
46.55957	1.54969	10999.987
46.6597	1.55365	11024.115
46.7598	1.55699	11046.712
46.8599	1.56106	11068.618
46.96	1.564312	11090.888
47.0601	1.567325	11112.436
47.1602	1.57017	11135.524
47.2603	1.57447	11157.421
47.3604	1.57754	11180.122
47.4604	1.58168	11203.315
47.5605	1.58444	11225.672
47.6606	1.58721	11247.585
47.7607	1.5911	11271.262
47.86084	1.59452	11292.781
47.9609	1.59645	11315.528
48.061	1.60295	11335.589
48.1611	1.60506	11356.36
48.26123	1.607272	11381.381
48.3613	1.61107	11403.783
48.4614	1.61417	11427.892
48.5615	1.6179	11450.428
48.6616	1.62081	11472.2
48.7617	1.62406	11491.431
48.8618	1.628	11516.612
48.9619	1.63183	11538.521
49.062	1.63496	11560.68
49.1621	1.63813	11585.648
49.2622	1.64101	11606.296
49.3623	1.64439	11627.519
49.4624	1.64875	11647.184
49.5625	1.650092	11669.386
49.6626	1.65443	11695.683
49.7627	1.657775	11719.479
49.8628	1.66152	11740.986
49.9629	1.66529	11761.693
50.063	1.66798	11784.476
50.1631	1.67117	11805.553
50.2632	1.67465	11827.274
50.3633	1.67695	11847.36
50.4634	1.68014	11871.229
50.5635	1.68402	11892.88
50.6636	1.68757	11915.552
50.7637	1.69017	11934.613
50.86377	1.69378	11958.704
50.9639	1.69833	11982.105
51.064	1.70156	12005.479
51.1641	1.703921	12029.761
51.26416	1.70794	12050.911
51.3643	1.71154	12074.154
51.4644	1.7135	12095.144
51.5645	1.71735	12119.376
51.6646	1.72138	12139.791
51.7646	1.72416	12160.668
51.8647	1.72781	12184.101
51.9648	1.73182	12204.386
52.0649	1.73432	12227.339
52.165	1.73699	12248.788
52.2651	1.7399	12272.013
52.3652	1.74474	12294.318
52.4653	1.74731	12317.484
52.56543	1.74989	12340.854
52.6655	1.7547	12363.285
52.7656	1.758343	12382.28
52.8657	1.75988	12405.146
52.96582	1.76386	12428.769
53.0659	1.76806	12449.769
53.166	1.7712	12472.437
53.2661	1.774013	12494.958
53.3662	1.777178	12514.815
53.4663	1.7797	12538.202
53.5664	1.78378	12560.483
53.6665	1.78605	12583.165
53.7666	1.79141	12603.032
53.8667	1.79357	12626.852
53.9668	1.79764	12651.755
54.0669	1.80073	12672.22
54.167	1.80486	12692.184
54.26709	1.80772	12714.951
54.3672	1.81052	12736.57
54.4673	1.81393	12758.576
54.5674	1.81726	12781.764
54.66748	1.82016	12803.365
54.7676	1.82478	12825.819
54.8677	1.82835	12848.222
54.9678	1.83093	12870.827
55.0679	1.83384	12891.481
55.168	1.837495	12915.467
55.2681	1.84047	12937.295
55.3682	1.84371	12958.649
55.4683	1.84763	12980.927
55.5684	1.8508	13002.183
55.6685	1.85462	13025.447
55.7686	1.85801	13045.986
55.8687	1.8599	13065.024
55.96875	1.86409	13088.136
56.0688	1.86701	13111.908
56.1689	1.87123	13133.646
56.269	1.87332	13155.351
56.3691	1.87749	13178.482
56.4692	1.88088	13201.872
56.5693	1.88417	13223.029
56.6694	1.88761	13244.896
56.7695	1.89145	13264.71
56.8696	1.89392	13288.285
56.9697	1.8982	13309.763
57.0698	1.90115	13330.317
57.1699	1.90425	13353.089
57.27002	1.90742	13373.368
57.3701	1.910165	13393.483
57.4702	1.91471	13417.058
57.5703	1.9178	13439.704
57.67041	1.92095	13460.678
57.7705	1.92396	13482.841
57.8706	1.92837	13503.916
57.9707	1.92982	13523.069
58.0708	1.93567	13543.883
58.1709	1.93749	13568.66
58.271	1.94101	13592.386
58.3711	1.94478	13615.583
58.4712	1.948455	13635.756
58.5713	1.949811	13657.229
58.6714	1.95352	13680.603
58.7715	1.9574	13701.79
58.8716	1.96155	13725.882
58.97168	1.96435	13749.802
59.0718	1.96813	13771.777
59.1719	1.97094	13790.972
59.272	1.97417	13811.958
59.37207	1.97791	13831.527
59.4722	1.98119	13852.399
59.5723	1.98437	13872.933
59.6724	1.98847	13894.689
59.7725	1.99005	13915.771
59.8726	1.99361	13937.682
59.9727	1.99746	13961.887
60.0728	2.00073	13986.35
60.1729	2.00387	14008.947
60.2729	2.00872	14029.918
60.373	2.0115	14051.981
60.4731	2.01417	14072.983
60.5732	2.01724	14095.549
60.67334	2.02075	14118.458
60.7734	2.023962	14139.998
60.8735	2.02815	14161.475
60.9736	2.03104	14180.735
61.07373	2.03387	14200.433
61.1738	2.03724	14225.702
61.2739	2.04186	14247.812
61.374	2.04386	14269.816
61.4741	2.046895	14288.9
61.5742	2.05091	14311.851
61.6743	2.05393	14334.922
61.7744	2.057153	14356.479
61.8745	2.0606	14376.356
61.9746	2.06433	14398.078
62.0747	2.06806	14420.599
62.1748	2.07166	14444.08
62.2749	2.07433	14466.078
62.375	2.07804	14486.426
62.4751	2.08056	14508.104
62.5752	2.08425	14529.222
62.6753	2.08691	14551.36
62.7754	2.09106	14573.515
62.8755	2.09392	14595.434
62.9756	2.097851	14614.128
63.0757	2.10105	14635.88
63.1758	2.103713	14657.708
63.2759	2.10803	14678.782
63.376	2.11121	14701.344
63.4761	2.11429	14720.863
63.5762	2.11729	14742.806
63.67627	2.12091	14762.862
63.7764	2.12404	14785.395
63.8765	2.12746	14808.939
63.9766	2.13069	14832.223
64.07666	2.13401	14853.54
64.1768	2.13764	14874.225
64.2769	2.14117	14894.568
64.377	2.14328	14915.537
64.4771	2.14744	14936.387
64.5771	2.15182	14959.856
64.6772	2.15417	14978.389
64.7773	2.15656	15000.886
64.8774	2.1618	15021.961
64.9775	2.16397	15041.918
65.0776	2.16797	15065.608
65.1777	2.17072	15087.773
65.2778	2.174458	15110.61
65.37793	2.17811	15132.498
65.478	2.18073	15154.218
65.5781	2.18483	15176.355
65.6782	2.18729	15197.724
65.77832	2.19114	15218.117
65.8784	2.19394	15237.299
65.9785	2.19834	15259.235
66.0786	2.202028	15281.773
66.1787	2.20418	15300.328
66.2788	2.20764	15324.83
66.3789	2.21134	15347.978
66.479	2.21397	15370.635
66.5791	2.21637	15391.407
66.6792	2.22192	15410.496
66.7793	2.22442	15432.033
66.8794	2.22823	15454.639
66.9795	2.23058	15475.966
67.07959	2.23382	15494.782
67.1797	2.23704	15516.958
67.2798	2.24118	15538.485
67.3799	2.24435	15560.731
67.47998	2.24773	15581.303
67.5801	2.25037	15604.089
67.6802	2.25396	15622.397
67.7803	2.25908	15647.943
67.8804	2.26077	15669.766
67.9805	2.26497	15689.779
68.0806	2.26817	15710.882
68.1807	2.27216	15731.994
68.2808	2.27552	15752.45
68.3809	2.27781	15774.665
68.481	2.28106	15796.854
68.5811	2.28387	15814.879
68.6812	2.28806	15837.962
68.78125	2.29076	15857.049
68.8813	2.29348	15878.833
68.9814	2.29786	15898.584
69.0815	2.30062	15921.665
69.1816	2.304533	15946.729
69.2817	2.30828	15967.653
69.3818	2.311188	15988.238
69.4819	2.31466	16008.889
69.582	2.31746	16029.327
69.6821	2.3218	16048.9
69.7822	2.32406	16071.177
69.8823	2.32735	16096.056
69.9824	2.33077	16117.052
70.08252	2.33399	16136.633
70.1826	2.33772	16156.698
70.2827	2.3405	16176.372
70.3828	2.34371	16201.052
70.48291	2.34671	16220.705
70.583	2.35089	16241.313
70.6831	2.35416	16263.846
70.7832	2.35674	16284.328
70.8833	2.36044	16304.346
70.9834	2.363342	16328.735
71.0835	2.36762	16350.182
71.1836	2.37081	16373.737
71.2837	2.37432	16394.031
71.3838	2.37751	16416.15
71.4839	2.38065	16433.859
71.584	2.38368	16456.539
71.6841	2.38725	16481.145
71.78418	2.39018	16501.787
71.8843	2.393353	16522.789
71.9844	2.39662	16542.666
72.0845	2.40113	16563.096
72.18457	2.40485	16585.281
72.2847	2.40723	16604.049
72.3848	2.41034	16625.02
72.4849	2.41413	16647.973
72.585	2.41714	16668.539
72.6851	2.4204	16689.641
72.7852	2.42434	16711.977
72.8853	2.42779	16731.898
72.9854	2.43037	16751.848
73.0854	2.43416	16772.908
73.1855	2.43822	16794.633
73.2856	2.44098	16815.711
73.3857	2.44425	16836.949
73.48584	2.44787	16858.975
73.5859	2.45012	16881.352
73.686	2.45191	16885.332
73.7861	2.45606	16913.99
73.88623	2.46002	16941.086
73.9863	2.46395	16964.047
74.0864	2.46767	16984.662
74.1865	2.47076	17005.922
74.2866	2.4741	17028.658
74.3867	2.47699	17049.973
74.4868	2.4816	17070.131
74.5869	2.4843	17090.529
74.687	2.487433	17109.828
74.7871	2.49169	17130.934
74.8872	2.49402	17155.02
74.9873	2.49766	17174.803
75.0874	2.50087	17195.883
75.1875	2.504015	17216.094
75.2876	2.50759	17237.799
75.3877	2.51058	17259.938
75.4878	2.51479	17282.682
75.5879	2.51789	17302.541
75.688	2.52129	17321.986
75.7881	2.52485	17342.877
75.8882	2.52795	17362.703
75.9883	2.53049	17385.861
76.0884	2.53457	17404.229
76.1885	2.538559	17431.182
76.2886	2.54082	17455.01
76.3887	2.54569	17474.275
76.48877	2.54848	17492.451
76.5889	2.55176	17511.246
76.689	2.55429	17531.627
76.7891	2.55845	17552.178
76.88916	2.56165	17571.361
76.9893	2.56529	17591.021
77.0894	2.568367	17612.85
77.1895	2.570653	17635.877
77.2896	2.57464	17657.055
77.3896	2.57753	17676.836
77.4897	2.58132	17695.809
77.5898	2.58418	17718.611
77.6899	2.58765	17739.125
77.79	2.5911	17759.541
77.8901	2.59388	17782.363
77.9902	2.59832	17803.406
78.0903	2.60083	17823.186
78.19043	2.60487	17844.209
78.2905	2.60722	17866.143
78.3906	2.61042	17888.354
78.4907	2.61417	17906.756
78.59082	2.617532	17926.156
78.6909	2.62183	17948.395
78.791	2.62317	17966.031
78.8911	2.62679	17987.334
78.9912	2.62978	18008.834
79.0913	2.6347	18029.492
79.1914	2.63906	18053.221
79.2915	2.64089	18072.4
79.3916	2.64336	18095.369
79.4917	2.64913	18114.645
79.5918	2.65127	18132.98
79.6919	2.65363	18153.953
79.792	2.65782	18176.137
79.89209	2.6609	18196.34
79.9922	2.66327	18218.494
80.0923	2.66804	18237.811
80.1924	2.67013	18259.189
80.29248	2.67461	18279.596
80.3926	2.67771	18303.664
80.4927	2.68065	18324.182
80.5928	2.68353	18345.824
80.6929	2.68726	18365.85
80.793	2.6921	18386.406
80.8931	2.69374	18407.117
80.9932	2.69752	18427.68
81.0933	2.70221	18447.449
81.1934	2.70452	18470.301
81.2935	2.70865	18491.783
81.3936	2.71123	18510.764
81.4937	2.71468	18532.275
81.59375	2.71804	18551.828
81.6938	2.72077	18572.631
81.7939	2.72407	18593.291
81.894	2.72738	18612.326
81.9941	2.73135	18632.936
82.0942	2.73374	18652.98
82.1943	2.738276	18674.088
82.2944	2.74201	18689.75
82.3945	2.74305	18711.512
82.4946	2.74803	18734.416
82.5947	2.75077	18751.467
82.6948	2.75564	18773.938
82.7949	2.75784	18796.924
82.89502	2.76108	18817.215
82.9951	2.76405	18835.883
83.0952	2.76719	18859.168
83.1953	2.77135	18879.969
83.29541	2.77399	18903.76
83.3955	2.77773	18921.293
83.4956	2.78136	18941.457
83.5957	2.78397	18962.055
83.6958	2.78762	18985.129
83.7959	2.791	19002.918
83.896	2.792877	19024.449
83.9961	2.79908	19044.191
84.0962	2.80105	19066.668
84.1963	2.80318	19086.477
84.2964	2.80709	19107.529
84.3965	2.81088	19131.035
84.4966	2.81485	19152.277
84.59668	2.81774	19170.182
84.6968	2.82147	19188.688
84.7969	2.82609	19207.742
84.897	2.82774	19228.752
84.99707	2.83175	19249.77
85.0972	2.83438	19270.922
85.1973	2.837935	19292.082
85.2974	2.84139	19311.199
85.3975	2.84466	19330.832
85.4976	2.84899	19352.285
85.5977	2.85081	19373.176
85.6978	2.85527	19394.336
85.7979	2.85826	19410.291
85.8979	2.8614	19432.752
85.998	2.86359	19452.613
86.0981	2.86761	19472.836
86.1982	2.87114	19496.619
86.29834	2.87396	19514.824
86.3984	2.87762	19534.443
86.4985	2.88059	19558.02
86.5986	2.88468	19576.373
86.69873	2.88722	19596.596
86.7988	2.891016	19616.135
86.8989	2.894181	19635.488
86.999	2.89822	19655.807
87.0991	2.90089	19674.869
87.1992	2.90345	19698.551
87.2993	2.90734	19719.492
87.3994	2.91033	19740.232
87.4995	2.914515	19763.041
87.5996	2.91807	19783.814
87.6997	2.92108	19804.646
87.7998	2.92403	19824.455
87.8999	2.92746	19846.457
88	2.93178	19865.219
88.1001	2.93443	19883.115
88.2002	2.938333	19902.816
88.3003	2.94081	19921.422
88.4004	2.94416	19942.488
88.5005	2.94648	19961.457
88.6006	2.9504	19982.563
88.7007	2.95475	20003.393
88.8008	2.95833	20024.068
88.9009	2.9606	20043.432
89.001	2.9646	20065.23
89.1011	2.96789	20083.988
89.2012	2.96983	20103.727
89.30127	2.974823	20125.572
89.4014	2.97782	20146.488
89.5015	2.98051	20162.311
89.6016	2.98382	20187.158
89.70166	2.98738	20204.129
89.8018	2.991447	20225.354
89.9019	2.994293	20243.4
90.002	2.99815	20263.941
90.1021	3.00274	20282.65
90.2021	3.00399	20302.25
90.3022	3.00668	20324.064
90.4023	3.01115	20340.93
90.5024	3.01352	20362.674
90.6025	3.01892	20384.211
90.7026	3.02086	20404.582
90.8027	3.02447	20427.107
90.9028	3.02743	20445.355
91.00293	3.031373	20467.771
91.103	3.03473	20488.844
91.2031	3.03749	20508.658
91.3032	3.04253	20527.33
91.40332	3.04416	20545.178
91.5034	3.04759	20568.008
91.6035	3.05074	20588.029
91.7036	3.0546	20608.369
91.8037	3.05787	20627.355
91.9038	3.06102	20649.938
92.0039	3.06397	20667.441
92.104	3.06731	20686.283
92.2041	3.07122	20708.313
92.3042	3.07528	20728.098
92.4043	3.07718	20746.77
92.5044	3.08065	20767.646
92.6045	3.08417	20786.475
92.70459	3.08807	20805.461
92.8047	3.091687	20829.631
92.9048	3.09389	20850.385
93.0049	3.09787	20869.137
93.10498	3.10189	20890.023
93.2051	3.10461	20909.105
93.3052	3.10729	20929.834
93.4053	3.1118	20950.107
93.5054	3.11404	20970.291
93.6055	3.11835	20988.928
93.7056	3.12116	21009.475
93.8057	3.125	21028.758
93.9058	3.12887	21050.916
94.0059	3.1315	21071.031
94.106	3.13437	21089.529
94.2061	3.13852	21109.654
94.3062	3.14141	21128.912
94.40625	3.14426	21147.236
94.5063	3.14887	21166.584
94.6064	3.15023	21186.256
94.7065	3.1554	21203.061
94.8066	3.15791	21225.738
94.9067	3.16136	21247.258
95.0068	3.16456	21267.238
95.1069	3.16773	21285.811
95.207	3.17124	21306.199
95.3071	3.17412	21316.813
95.4072	3.17739	21342.604
95.5073	3.18109	21366.459
95.6074	3.18508	21382.002
95.70752	3.18705	21400.172
95.8076	3.19113	21420.615
95.9077	3.19441	21442.344
96.0078	3.19834	21463.57
96.10791	3.20152	21480.992
96.208	3.20538	21503.504
96.3081	3.20897	21522.785
96.4082	3.21174	21543.154
96.5083	3.21524	21564.768
96.6084	3.21751	21582.453
96.7085	3.22179	21601.674
96.8086	3.22413	21623.061
96.9087	3.22749	21639.602
97.0088	3.23141	21659.725
97.1089	3.234622	21678.568
97.209	3.237313	21697.982
97.3091	3.24096	21717.754
97.40918	3.24488	21738.746
97.5093	3.24911	21758.615
97.6094	3.251061	21776.814
97.7095	3.25578	21792.65
97.80957	3.2576	21814.418
97.9097	3.26199	21836.877
98.0098	3.26507	21856.561
98.1099	3.26864	21871.736
98.21	3.270793	21888.828
98.3101	3.274256	21908.33
98.4102	3.2778	21931.887
98.5103	3.28061	21950.965
98.6104	3.28375	21969.07
98.7104	3.2876	21990.73
98.8105	3.29234	22010.459
98.9106	3.29501	22029.072
99.0107	3.29904	22046.459
99.11084	3.3013	22067.668
99.2109	3.305	22087.734
99.311	3.30772	22108.684
99.4111	3.31071	22126.932
99.51123	3.31508	22144.742
99.6113	3.31817	22162.717
99.7114	3.32132	22180.51
99.8115	3.32425	22201.539
99.9116	3.32783	22221.537
100.012	3.33207	22239.896
100.112	3.33417	22260.488
100.212	3.33799	22279.234
100.312	3.3419	22298.199
100.412	3.344831	22318.133
100.512	3.347373	22337.275
100.6123	3.35109	22355.295
100.7124	3.35488	22374.158
100.8125	3.35789	22392.594
100.9126	3.36107	22412.889
101.0127	3.36449	22433.221
101.113	3.36786	22452.988
101.213	3.37065	22470.84
101.313	3.37453	22490.719
101.413	3.37826	22508.34
101.513	3.380415	22529.02
101.613	3.38464	22548.689
101.713	3.38825	22566.48
101.813	3.391	22582.129
101.914	3.394136	22605.084
102.014	3.39849	22624.324
102.114	3.40164	22642.016
102.214	3.40416	22658.803
102.314	3.40745	22678.564
102.414	3.410861	22693.82
102.514	3.41552	22714.26

Data Acquisition						Time:	104.312	s	6/4/2018 2:58:47 PM
Time	MTS 4 Displacement 4	MTS 4 Force 4
s	mm	N
102.614	3.41756	22734.189
102.714	3.42125	22753.381
102.814	3.42443	22773.379
102.915	3.42797	22793.176
103.015	3.43175	22813.344
103.115	3.43472	22831.525
103.215	3.43766	22850.93
103.315	3.4415	22869.045
103.415	3.44335	22886.068
103.515	3.44743	22904.08
103.615	3.450346	22921.746
103.715	3.45421	22939.479
103.815	3.45852	22956.971
103.916	3.46065	22973.924
104.016	3.464642	22989.949
104.116	3.46795	23004.832
104.216	3.471446	23022.309