File: dublin_poster_plots/Tensile Tests - Quenched Samples 20180604/BLPX-M1-Q030-02_20180604/specimen.dat
MTS793|MPT|ENU|1|2|.|/|:|1|0|0|A

Data Acquisition						Time:	70.437	s	6/4/2018 3:25:56 PM
Time	MTS 4 Displacement 4	MTS 4 Force 4
s	mm	N
0.114746	-0.0017643	-28.132
0.214844	0.00304282	-16.9689
0.314941	0.0064373	-3.33264
0.415039	0.00985265	11.08367
0.515137	0.0131547	24.13448
0.615234	0.0162661	38.5297
0.715332	0.0196785	50.14222
0.81543	0.0230789	66.6711
0.915527	0.0259578	82.2159
1.015625	0.02925396	97.41
1.11572	0.0329882	112.921
1.21582	0.0366211	129.107
1.315918	0.0387758	146.0013
1.41602	0.042522	162.693
1.51611	0.0458896	178.884
1.61621	0.0489712	196.856
1.71631	0.0522971	214.28
1.81641	0.0566363	234.093
1.9165	0.0583619	250.261
2.0166	0.0622004	268.5018
2.1167	0.064972	286.029
2.2168	0.0680655	305.616
2.31689	0.07302165	326.075
2.41699	0.0753641	343.39
2.51709	0.0781983	363.992
2.61719	0.0819087	381.136
2.71729	0.0857532	401.404
2.81738	0.0883371	421.995
2.91748	0.0926137	441.952
3.01758	0.09663105	459.653
3.11768	0.0977546	478.784
3.21777	0.103387	495.569
3.31787	0.106183	509.5368
3.41797	0.108877	527.953
3.51807	0.112534	549.115
3.61816	0.116205	570.32
3.71826	0.119376	592.787
3.81836	0.122878	613.349
3.918457	0.125647	634.699
4.01855	0.128576	652.411
4.11865	0.132278	674.451
4.21875	0.136137	696.219
4.31885	0.13836	717.652
4.41895	0.142452	734.976
4.519043	0.146174	758.5918
4.61914	0.148574	776.685
4.71924	0.152084	797.5799
4.81934	0.155544	817.555
4.91943	0.157699	839.2948
5.01953	0.162932	861.818
5.11963	0.16554	883.395
5.21973	0.168937	903.707
5.31982	0.172144	923.154
5.41992	0.175083	943.817
5.52002	0.178453	965.676
5.62012	0.182822	986.376
5.72021	0.1845777	1006.65
5.82031	0.189123	1027.03
5.92041	0.1922965	1048.262
6.02051	0.195396	1068.929
6.12061	0.198829	1090.62
6.2207	0.202399	1112.89
6.3208	0.206232	1131.85
6.4209	0.209486	1152.65
6.521	0.212353	1174.53
6.62109	0.215849	1192.91
6.72119	0.220367	1211.457
6.82129	0.222623	1234.224
6.92139	0.226614	1255.41
7.02148	0.229284	1276.28
7.121582	0.232223	1296.51
7.22168	0.2363801	1318.07
7.32178	0.238478	1338.2
7.421875	0.24235	1358.5
7.52197	0.245512	1379.09
7.62207	0.248936	1398.41
7.722168	0.252873	1418.76
7.82227	0.255474	1438.51
7.92236	0.259304	1462.62
8.02246	0.262323	1482.95
8.12256	0.264561	1499.97
8.22266	0.269368	1522.17
8.32275	0.272751	1541.71
8.42285	0.277141	1564.3
8.52295	0.280395	1585.81
8.62305	0.28218	1606.24
8.72314	0.286123	1625.57
8.82324	0.289831	1645.28
8.92334	0.292954	1663.75
9.02344	0.29681	1681.98
9.12354	0.298584	1703.06
9.22363	0.302693	1724.81
9.32373	0.306824	1743.54
9.42383	0.309345	1763.86
9.52393	0.312099	1784.3
9.62402	0.315094	1803.92
9.72412	0.318989	1824.67
9.82422	0.322449	1840.39
9.92432	0.325328	1862.66
10.0244	0.329158	1884.48
10.1245	0.3316164	1904.8
10.2246	0.335759	1924.94
10.3247	0.3385663	1943.296
10.4248	0.342277	1964.93
10.5249	0.344935	1983.83
10.625	0.348303	2003.59
10.7251	0.352487	2025.21
10.8252	0.355506	2048.11
10.9253	0.358787	2068.82
11.0254	0.362787	2088.36
11.1255	0.3673315	2109.603
11.2256	0.370133	2129.22
11.3257	0.371787	2149.25
11.4258	0.376591	2169.39
11.5259	0.378954	2191.36
11.626	0.382835	2210.46
11.7261	0.38588	2234.69
11.8262	0.389525	2255.58
11.92627	0.392985	2278.14
12.0264	0.396588	2297.2
12.1265	0.40006	2313.89
12.2266	0.402737	2335.448
12.32666	0.406271	2358.9
12.4268	0.410354	2378.02
12.5269	0.4137814	2398.73
12.627	0.416604	2420.3
12.7271	0.420126	2443.84
12.8271	0.42454	2467.93
12.9272	0.428763	2494.563
13.0273	0.434431	2529.39
13.1274	0.438079	2541.2
13.2275	0.4401	2561.28
13.3276	0.443867	2582.79
13.4277	0.447708	2604.27
13.5278	0.45042	2625.03
13.62793	0.454062	2643.23
13.728	0.4570812	2661.31
13.8281	0.462171	2681.196
13.9282	0.4635483	2698.41
14.02832	0.4671663	2720.196
14.1284	0.470048	2738.291
14.2285	0.474477	2760
14.3286	0.47704	2779.79
14.4287	0.480041	2797.69
14.5288	0.483763	2817.37
14.6289	0.485516	2836.48
14.729	0.490284	2857.44
14.8291	0.493336	2876.75
14.9292	0.495723	2898.937
15.0293	0.499141	2919.35
15.1294	0.503272	2937.92
15.2295	0.505877	2956.55
15.32959	0.510114	2976.16
15.4297	0.513026	2995.44
15.5298	0.515521	3016.85
15.6299	0.519234	3036.22
15.72998	0.522465	3056.06
15.8301	0.525275	3076.72
15.9302	0.528762	3095.46
16.0303	0.532329	3113.58
16.1304	0.536138	3133.34
16.2305	0.538853	3153.33
16.3306	0.542226	3172.946
16.4307	0.546923	3194.96
16.5308	0.548789	3213.79
16.6309	0.5525738	3234.59
16.731	0.5558759	3256.543
16.8311	0.558761	3277.24
16.9312	0.561249	3297.85
17.03125	0.565764	3319.47
17.1313	0.568298	3338.99
17.2314	0.5726397	3358.06
17.3315	0.57427	3379.68
17.4316	0.578335	3398.37
17.5317	0.582051	3419.35
17.6318	0.585285	3440.53
17.7319	0.589412	3461.42
17.832	0.591773	3481.11
17.9321	0.59559	3499.56
18.0322	0.598323	3519.14
18.1323	0.603321	3541.38
18.2324	0.60502	3560.46
18.33252	0.608402	3581.56
18.4326	0.612313	3600.31
18.5327	0.615004	3622.58
18.6328	0.6185174	3641.62
18.73291	0.622714	3662.14
18.833	0.6257534	3681.98
18.9331	0.628364	3700.22
19.0332	0.632307	3719.88
19.1333	0.635275	3743.37
19.2334	0.638652	3765.39
19.3335	0.640932	3783.59
19.4336	0.644901	3807.31
19.5337	0.648665	3828.05
19.6338	0.652325	3846.72
19.7339	0.655973	3860.99
19.834	0.657445	3883.32
19.9341	0.663081	3907.2
20.03418	0.664893	3928.17
20.1343	0.6690532	3948.63
20.2344	0.671679	3969.15
20.3345	0.675392	3987.05
20.43457	0.678334	4008.02
20.5347	0.682658	4027.3
20.6348	0.685439	4049.73
20.7349	0.6883949	4070.19
20.835	0.691429	4089.55
20.9351	0.694719	4110.22
21.0352	0.69899	4132.81
21.1353	0.701314	4152.33
21.2354	0.704566	4173.749
21.3354	0.7078886	4193.19
21.4355	0.712687	4216.15
21.5356	0.716823	4237.54
21.6357	0.718018	4259.95
21.73584	0.721136	4279.93
21.8359	0.725889	4300.31
21.936	0.727731	4320.93
22.0361	0.732097	4340.76
22.13623	0.734922	4359.84
22.2363	0.737965	4375.72
22.3364	0.741181	4399.44
22.4365	0.745925	4420.75
22.5366	0.748885	4442.1
22.6367	0.752518	4461.93
22.7368	0.754848	4482.95
22.8369	0.759315	4506.416
22.937	0.7612288	4526.31
23.0371	0.76564	4547.28
23.1372	0.769085	4560.5
23.2373	0.772011	4582.54
23.3374	0.77529	4600.85
23.4375	0.778735	4622.64
23.5376	0.781289	4643.78
23.6377	0.787312	4664.64
23.7378	0.788465	4684.01
23.8379	0.79259	4706.73
23.938	0.7958889	4728.94
24.0381	0.7989198	4749.416
24.1382	0.802428	4771.25
24.2383	0.805548	4788.6
24.3384	0.808454	4811.49
24.4385	0.811964	4830.03
24.5386	0.815997	4849.23
24.6387	0.818306	4870.12
24.73877	0.821859	4888.67
24.8389	0.825489	4909.998
24.939	0.8284	4929.13
25.0391	0.831935	4954.01
25.13916	0.835553	4971.58
25.2393	0.839326	4991.16
25.3394	0.842547	5013.02
25.4395	0.845474	5033.71
25.5396	0.848892	5055.66
25.6396	0.85215	5076.189
25.7397	0.856146	5097
25.8398	0.859308	5114.4
25.9399	0.861821	5135.05
26.04	0.8653909	5159.07
26.1401	0.869542	5176.959
26.2402	0.872052	5199.11
26.3403	0.876686	5220.24
26.44043	0.878739	5242.43
26.5405	0.882143	5261.56
26.6406	0.885746	5283.31
26.7407	0.889057	5301.93
26.84082	0.89255	5325.27
26.9409	0.895804	5345.04
27.041	0.898305	5363.082
27.1411	0.901639	5382.99
27.2412	0.905225	5403.49
27.3413	0.90929	5423.99
27.4414	0.912121	5443.707
27.5415	0.9151876	5464.81
27.6416	0.918949	5484.48
27.7417	0.921929	5504.33
27.8418	0.925401	5527.12
27.9419	0.927913	5547.56
28.042	0.933325	5568.65
28.14209	0.937638	5591.38
28.2422	0.9392947	5613.624
28.3423	0.942868	5630.15
28.4424	0.9470731	5652.26
28.54248	0.948671	5672.4
28.6426	0.9513557	5691.96
28.7427	0.956875	5713.33
28.8428	0.959185	5732.55
28.9429	0.962877	5750.77
29.043	0.965294	5771.125
29.1431	0.969243	5792.97
29.2432	0.972259	5813.27
29.3433	0.9760946	5832.56
29.4434	0.979152	5855.42
29.5435	0.982293	5875.97
29.6436	0.986713	5897.62
29.7437	0.989434	5917.88
29.84375	0.992012	5937.52
29.9438	0.995767	5958.2
30.0439	0.998214	5979.34
30.144	1.0023	6000.46
30.2441	1.00667	6022.89
30.3442	1.00878	6043.01
30.4443	1.01294	6065.39
30.5444	1.01646	6083.41
30.6445	1.01871	6102.5
30.7446	1.02133	6122.65
30.8447	1.02583	6146.98
30.9448	1.02921	6167.26
31.0449	1.03286	6190.02
31.14502	1.03608	6210.18
31.2451	1.03941	6232.8
31.3452	1.04309	6254.45
31.4453	1.04596	6273.9
31.54541	1.049298	6294.02
31.6455	1.05297	6314.854
31.7456	1.056546	6334.624
31.8457	1.05863	6354.27
31.9458	1.06246	6374.74
32.0459	1.0655	6392.16
32.146	1.07089	6415.93
32.2461	1.07301	6436.96
32.3462	1.078108	6455.38
32.4463	1.07932	6474.73
32.5464	1.08332	6495.626
32.6465	1.08662	6512.33
32.7466	1.089114	6531.65
32.84668	1.09371	6553.19
32.9468	1.09718	6574.18
33.0469	1.09933	6594.4
33.147	1.10275	6614.35
33.24707	1.105985	6636.47
33.3472	1.10995	6655.436
33.4473	1.112625	6676.13
33.5474	1.11628	6697.88
33.6475	1.11899	6718.63
33.7476	1.12264	6738.91
33.8477	1.12715	6763.11
33.9478	1.13004	6788.07
34.0479	1.13377	6805.6
34.1479	1.13732	6825.9
34.248	1.13921	6845.7
34.3481	1.14371	6866.8
34.4482	1.14721	6881.66
34.54834	1.1487	6905.36
34.6484	1.15286	6925.14
34.7485	1.15642	6945.25
34.8486	1.1601	6964.55
34.94873	1.16364	6986.13
35.0488	1.16703	7007.66
35.1489	1.17003	7027.94
35.249	1.17306	7046.04
35.3491	1.17656	7064.28
35.4492	1.18019	7085.43
35.5493	1.18325	7105.26
35.6494	1.18653	7125.7
35.7495	1.18974	7144.95
35.8496	1.19416	7168.21
35.9497	1.19641	7189.43
36.0498	1.19979	7209.39
36.1499	1.20266	7230.2
36.25	1.20592	7248.55
36.3501	1.20955	7268.16
36.4502	1.21236	7289.11
36.5503	1.21627	7310.21
36.6504	1.21974	7331
36.7505	1.22259	7351.94
36.8506	1.22622	7373.93
36.9507	1.2294	7395.63
37.0508	1.23312	7416.21
37.1509	1.23607	7439.5
37.251	1.23989	7457.89
37.3511	1.242438	7478.84
37.4512	1.24616	7499.49
37.55127	1.24926	7519.81
37.6514	1.25289	7539.15
37.7515	1.2561	7562.16
37.8516	1.25979	7582.31
37.95166	1.263243	7600.08
38.0518	1.26713	7620.42
38.1519	1.26997	7640.17
38.252	1.27285	7660.79
38.3521	1.27591	7681.38
38.4521	1.2792	7702.84
38.5522	1.283294	7722.81
38.6523	1.28644	7742.9
38.7524	1.29124	7760.76
38.8525	1.29274	7784.01
38.9526	1.29574	7805.53
39.0527	1.2991	7826.28
39.1528	1.30271	7844.09
39.25293	1.305896	7861.67
39.353	1.309824	7884.64
39.4531	1.3125	7907.68
39.5532	1.31579	7928.39
39.65332	1.320523	7947.63
39.7534	1.32326	7968.48
39.8535	1.32644	7990.99
39.9536	1.329726	8012.22
40.0537	1.33323	8034.19
40.1538	1.33682	8053.11
40.2539	1.3402	8071.63
40.354	1.34353	8089.03
40.4541	1.34564	8110.28
40.5542	1.34972	8131.647
40.6543	1.35366	8151.82
40.7544	1.3566	8172.6
40.8545	1.35971	8193.48
40.95459	1.3626	8214.333
41.0547	1.36613	8235.71
41.1548	1.3698	8257.74
41.2549	1.37422	8281.6
41.35498	1.37734	8300.01
41.4551	1.37994	8321.34
41.5552	1.38325	8339.13
41.6553	1.38648	8359.377
41.7554	1.39035	8378.52
41.8555	1.39283	8398.69
41.9556	1.39722	8418.12
42.0557	1.40001	8439.28
42.1558	1.40323	8458.69
42.2559	1.40608	8479.15
42.356	1.409629	8498.81
42.4561	1.41321	8516.49
42.5562	1.415664	8539.23
42.65625	1.42118	8561.71
42.7563	1.42437	8581.43
42.8564	1.4273	8601.91
42.9565	1.4302	8622.04
43.0566	1.43465	8642.6
43.1567	1.43681	8663.51
43.2568	1.44081	8683.14
43.3569	1.4444	8705.47
43.457	1.44746	8726.37
43.5571	1.45	8748.81
43.6572	1.45407	8768.76
43.7573	1.45668	8784.97
43.8574	1.4612	8804.93
43.95752	1.46365	8826.55
44.0576	1.46672	8849.02
44.1577	1.46968	8869.68
44.2578	1.47258	8891.2
44.35791	1.47722	8910.95
44.458	1.48127	8932.31
44.5581	1.48423	8952.17
44.6582	1.48686	8970.69
44.7583	1.49062	8990.9
44.8584	1.49356	9011.74
44.9585	1.49668	9033.02
45.0586	1.500237	9053.57
45.1587	1.50367	9074.168
45.2588	1.50669	9093.4
45.3589	1.511243	9111.73
45.459	1.51306	9131.98
45.5591	1.51683	9155.66
45.65918	1.52093	9175.08
45.7593	1.52401	9196.49
45.8594	1.52649	9215.61
45.9595	1.529637	9237.959
46.05957	1.53339	9256.32
46.1597	1.53701	9275.61
46.2598	1.54084	9297.22
46.3599	1.54395	9316.47
46.46	1.54699	9338.06
46.5601	1.55106	9357.38
46.6602	1.55415	9377.93
46.7603	1.55801	9398.69
46.8604	1.5609	9419.99
46.9604	1.56385	9440.11
47.0605	1.56679	9457.97
47.1606	1.57144	9479.06
47.2607	1.57415	9499.6
47.36084	1.57735	9521.17
47.4609	1.58198	9541.57
47.561	1.584515	9561.59
47.6611	1.58755	9582.21
47.76123	1.59	9605.2
47.8613	1.59477	9624.707
47.9614	1.59851	9645.69
48.0615	1.60122	9666.93
48.1616	1.60478	9688.36
48.2617	1.60747	9707.91
48.3618	1.6111	9727.51
48.4619	1.61473	9748.41
48.562	1.61742	9767.97
48.6621	1.62123	9790.27
48.7622	1.624006	9811.085
48.8623	1.62829	9831.03
48.9624	1.6306	9848.58
49.0625	1.63471	9866.14
49.1626	1.63832	9886.88
49.2627	1.64157	9909.07
49.3628	1.64438	9929.85
49.4629	1.64767	9951.18
49.563	1.65165	9971.78
49.6631	1.6551	9994.71
49.7632	1.65889	10014.249
49.8633	1.6604	10034.551
49.9634	1.66433	10054.921
50.0635	1.6682	10074.907
50.1636	1.67161	10094.518
50.2637	1.674819	10117.474
50.36377	1.67722	10137.015
50.4639	1.68209	10157.531
50.564	1.68467	10176.6
50.6641	1.68765	10197.046
50.76416	1.69182	10217.008
50.8643	1.69357	10236.475
50.9644	1.69746	10257.414
51.0645	1.70126	10279.093
51.1646	1.7043	10299.125
51.2646	1.70771	10320.498
51.3647	1.71117	10339.547
51.4648	1.71399	10358.982
51.5649	1.71761	10380.498
51.665	1.72288	10401.296
51.7651	1.72484	10420.688
51.8652	1.728034	10440.527
51.9653	1.73108	10461.121
52.06543	1.734525	10480.754
52.1655	1.73727	10502.326
52.2656	1.74087	10521.877
52.3657	1.74498	10539.868
52.46582	1.74732	10562.363
52.5659	1.75112	10581.4
52.666	1.75389	10601.01
52.7661	1.75818	10621.211
52.8662	1.76098	10640.769
52.9663	1.76534	10659.195
53.0664	1.76716	10677.158
53.1665	1.77076	10697.911
53.2666	1.77424	10718.913
53.3667	1.77742	10739.041
53.4668	1.78027	10758.295
53.5669	1.78424	10777.418
53.667	1.78767	10794.259
53.76709	1.79116	10814.413
53.8672	1.79404	10836.034
53.9673	1.79811	10855.197
54.0674	1.801312	10874.232
54.16748	1.80453	10894.419
54.2676	1.80774	10914.139
54.3677	1.81149	10933.728
54.4678	1.81411	10955.716
54.5679	1.817	10969.143
54.668	1.82045	10990.972
54.7681	1.82375	11012.763
54.8682	1.82806	11033.519
54.9683	1.83063	11050.899
55.0684	1.83333	11074.156
55.1685	1.83793	11094.243
55.2686	1.84129	11113.625
55.3687	1.84408	11132.228
55.46875	1.8466	11151.104
55.5688	1.85163	11173.015
55.6689	1.85398	11192.084
55.769	1.85811	11213.594
55.8691	1.86093	11232.244
55.9692	1.863423	11253.93
56.0693	1.86747	11272.595
56.1694	1.87137	11293.846
56.2695	1.87509	11313.862
56.3696	1.87846	11332.615
56.4697	1.88054	11354.683
56.5698	1.88356	11377.185
56.6699	1.8881	11395.816
56.77002	1.89193	11414.837
56.8701	1.895	11432.81
56.9702	1.89829	11449.488
57.0703	1.900515	11470.755
57.17041	1.90449	11491.269
57.2705	1.90822	11509.205
57.3706	1.9108	11528.567
57.4707	1.91326	11546.165
57.5708	1.91847	11566.935
57.6709	1.92073	11588.739
57.771	1.92461	11612.68
57.8711	1.9273	11633.07
57.9712	1.9315	11653.479
58.0713	1.93377	11670.83
58.1714	1.93677	11690.764
58.2715	1.94039	11711.215
58.3716	1.9452	11730.268
58.47168	1.94752	11745.791
58.5718	1.95043	11770.324
58.6719	1.95394	11791.104
58.772	1.95754	11814.385
58.87207	1.961273	11833.417
58.9722	1.965031	11852.783
59.0723	1.9672	11869.35
59.1724	1.97138	11889.976
59.2725	1.97425	11910.213
59.3726	1.97766	11931.514
59.4727	1.98137	11952.313
59.5728	1.98405	11971.822
59.6729	1.98799	11991.565
59.7729	1.99043	12011.458
59.873	1.99344	12031.734
59.9731	1.99743	12052.553
60.0732	2.00117	12072.401
60.17334	2.00506	12091.259
60.2734	2.00737	12111.029
60.3735	2.010891	12133.054
60.4736	2.01409	12151.242
60.57373	2.01712	12168.978
60.6738	2.02061	12190.711
60.7739	2.0237	12209.44
60.874	2.02688	12228.175
60.9741	2.03091	12247.071
61.0742	2.03522	12268.158
61.1743	2.03649	12287.178
61.2744	2.0416	12307.866
61.3745	2.0441	12327.917
61.4746	2.04729	12348.783
61.5747	2.05119	12370.094
61.6748	2.05569	12385.232
61.7749	2.05783	12403.665
61.875	2.06093	12423.119
61.9751	2.06499	12442.59
62.0752	2.06788	12461.621
62.1753	2.07088	12481.951
62.2754	2.07479	12499.603
62.3755	2.077	12520.573
62.4756	2.08041	12536.014
62.5757	2.0841	12556.382
62.6758	2.088213	12576.343
62.7759	2.09057	12596.629
62.876	2.09535	12616.861
62.9761	2.09767	12633.977
63.0762	2.10049	12652.936
63.17627	2.10446	12672.683
63.2764	2.107507	12654.966
63.3765	2.11095	12671.745
63.4766	2.11469	12690.494
63.57666	2.11687	12710.808
63.6768	2.12091	12728.761
63.7769	2.12459	12748.097
63.877	2.12859	12766.866
63.9771	2.13152	12787.725
64.0771	2.13461	12807.299
64.1772	2.13736	12826.364
64.2773	2.140543	12846.021
64.3774	2.14437	12866.246
64.4775	2.14778	12887.095
64.5776	2.15044	12906.194
64.6777	2.15342	12925.451
64.7778	2.1582	12945.618
64.87793	2.16052	12963.723
64.978	2.16305	12983.821
65.0781	2.16747	13003.184
65.1782	2.16966	13022.979
65.27832	2.17409	13033.974
65.3784	2.17909	12963.619
65.4785	2.181509	12981.335
65.5786	2.18481	12998.272
65.6787	2.1882	13009.948
65.7788	2.191803	13028.594
65.8789	2.19469	13040.266
65.979	2.19716	13031.166
66.0791	2.20118	13052.277
66.1792	2.204138	13069.813
66.2793	2.20857	13090.639
66.3794	2.21141	13110.777
66.4795	2.21484	13120.997
66.57959	2.21813	13138.074
66.6797	2.22114	13157.414
66.7798	2.22457	13173.826
66.8799	2.2275	13196.415
66.97998	2.22951	13217.405
67.0801	2.23435	13238.612
67.1802	2.237767	13256.898
67.2803	2.2414	13276.819
67.3804	2.24423	13295.645
67.4805	2.24789	13315.957
67.5806	2.250412	13333.836
67.6807	2.25434	13356.769
67.7808	2.25743	13376.89
67.8809	2.26092	13395.827
67.981	2.26449	13415.463
68.0811	2.2688	13432.01
68.1812	2.26966	13449.811
68.28125	2.2743	13472.068
68.3813	2.27738	13490.625
68.4814	2.2807	13509.857
68.5815	2.2844	13529.914
68.6816	2.2883	13547.081
68.7817	2.2906	13567.64
68.8818	2.29379	13590.618
68.9819	2.29834	13607.96
69.082	2.30201	13626.185
69.1821	2.30376	13644.689
69.2822	2.30835	13665.46
69.3823	2.31211	13686.06
69.4824	2.31474	13703.729
69.58252	2.31743	13723.279
69.6826	2.32041	13741.813
69.7827	2.32456	13761.233
69.8828	2.32694	13780.958
69.98291	2.33093	13801.9
70.083	2.33482	13792.411
70.1831	2.33809	13712.305
70.2832	2.34194	13723.896
70.3833	2.345711	13558.62