File: dublin_poster_plots/Tensile Tests - Quenched Samples 20180604/BLPX-M1-Q030-06_20180604/specimen.dat
MTS793|MPT|ENU|1|2|.|/|:|1|0|0|A

Data Acquisition						Time:	70.3682	s	6/4/2018 4:00:31 PM
Time	MTS 4 Displacement 4	MTS 4 Force 4
s	mm	N
0.114258	1.49012e-05	-15.6121
0.214355	0.00299811	-7.71955
0.314453	0.00589788	2.66815
0.414551	0.0098139	13.7666
0.514648	0.0123501	24.6237
0.614746	0.0160217	34.5035
0.714844	0.0198096	44.2117
0.814941	0.02258718	52.6341
0.915039	0.0263333	63.9115
1.01514	0.0292271	73.1649
1.11523	0.0329912	76.9657
1.215332	0.0363767	84.8634
1.31543	0.0399917	94.8713
1.41553	0.043264	100.585
1.515625	0.0464946	111.199
1.61572	0.0492394	120.996
1.71582	0.0521839	128.265
1.815918	0.0559717	137.779
1.91602	0.059852	144.054
2.01611	0.0629514	155.87
2.11621	0.0663698	165.269
2.21631	0.0701666	175.26
2.31641	0.0729144	187.3239
2.4165	0.0760019	200.403
2.5166	0.07904768	213.565
2.6167	0.0828832	224.2446
2.7168	0.08609	237.008
2.81689	0.0893831	249.083
2.91699	0.0928462	260.236
3.01709	0.0960946	267.412
3.11719	0.09945333	282.116
3.21729	0.103089	297.276
3.31738	0.106823	312.077
3.41748	0.109556	329.4415
3.51758	0.112796	343.242
3.61768	0.116611	358.865
3.71777	0.120515	375.226
3.81787	0.122708	390.27
3.91797	0.126341	407.275
4.01807	0.129101	422.068
4.11816	0.133672	438.505
4.21826	0.135064	452.041
4.31836	0.138283	469.138
4.418457	0.141844	486.281
4.51855	0.145823	505.978
4.61865	0.148356	520.943
4.71875	0.1524657	538.791
4.81885	0.155216	557.618
4.91895	0.15851	573.677
5.019043	0.162503	589.561
5.11914	0.165465	600.653
5.21924	0.168225	617.728
5.31934	0.172389	633.053
5.41943	0.175473	653.6416
5.51953	0.179082	671.075
5.61963	0.182918	689.174
5.71973	0.185409	705.264
5.81982	0.188428	724.47
5.91992	0.192472	743.807
6.02002	0.195733	765.776
6.12012	0.197974	782.6048
6.22021	0.20262	802.949
6.32031	0.205165	822.076
6.42041	0.209579	841.438
6.52051	0.21309	862.429
6.62061	0.216082	879.29
6.7207	0.218642	900.576
6.8208	0.22276	917.89
6.9209	0.226244	936.844
7.021	0.229803	955.837
7.12109	0.2327323	973.618
7.22119	0.235954	992.843
7.32129	0.2392143	1013.34
7.42139	0.2419591	1033.48
7.52148	0.245559	1055.18
7.621582	0.249448	1071.66
7.72168	0.252682	1090.67
7.82178	0.255877	1112.57
7.921875	0.258484	1132.55
8.02197	0.261146	1153.14
8.12207	0.265795	1174.28
8.222168	0.269681	1195.53
8.32227	0.27169	1212.17
8.42236	0.276896	1232.98
8.52246	0.279814	1253.69
8.62256	0.281921	1277.18
8.72266	0.28629	1295.3
8.82275	0.288677	1315.673
8.92285	0.292528	1331.7
9.02295	0.296164	1352.22
9.12305	0.298768	1374.74
9.22314	0.302172	1391.85
9.32324	0.305983	1412.504
9.42334	0.308418	1433.01
9.52344	0.31215	1452.71
9.62354	0.316229	1472.68
9.72363	0.318965	1493.44
9.82373	0.322387	1515.65
9.92383	0.326034	1534.781
10.0239	0.328958	1554.799
10.124	0.331539	1575.75
10.2241	0.3357619	1592.79
10.3242	0.338358	1611.73
10.4243	0.341716	1632.04
10.5244	0.346583	1651.3
10.6245	0.348225	1672.2
10.7246	0.353003	1693.27
10.8247	0.35584	1713.682
10.9248	0.359941	1734.63
11.0249	0.362685	1754.47
11.125	0.3651917	1773.77
11.2251	0.370356	1791.04
11.3252	0.372216	1809.73
11.4253	0.37517	1833.33
11.5254	0.379699	1851.5
11.6255	0.382471	1872.29
11.7256	0.386053	1891.4
11.8257	0.388929	1912.64
11.9258	0.3913939	1933.05
12.0259	0.395852	1955.707
12.126	0.3988862	1975.05
12.2261	0.402826	1992.35
12.3262	0.406685	2013.64
12.42627	0.409058	2032.99
12.5264	0.41334	2053.2
12.6265	0.41585	2074.58
12.7266	0.419199	2094.03
12.82666	0.4229933	2116.22
12.9268	0.426587	2135.29
13.0269	0.428796	2157.11
13.127	0.433442	2179.47
13.2271	0.436354	2201.76
13.3271	0.44049	2222.1
13.4272	0.444233	2244.37
13.5273	0.446162	2262.925
13.6274	0.451678	2284.2
13.7275	0.453529	2303.14
13.8276	0.457597	2325.71
13.9277	0.461203	2349.19
14.0278	0.465256	2370.26
14.12793	0.468719	2392.65
14.228	0.474545	2429.436
14.3281	0.480437	2462.15
14.4282	0.482744	2480.99
14.52832	0.48596	2499.28
14.6284	0.490129	2517.28
14.7285	0.492674	2536.23
14.8286	0.496933	2558
14.9287	0.499368	2574.23
15.0288	0.502229	2593.88
15.1289	0.505707	2614.02
15.229	0.5090028	2635.19
15.3291	0.513226	2654.86
15.4292	0.516218	2674.1
15.5293	0.51907	2693.15
15.6294	0.522095	2711.73
15.7295	0.525457	2732.77
15.82959	0.529495	2752.14
15.9297	0.531328	2771.23
16.0298	0.534672	2792.35
16.1299	0.538564	2811.6
16.22998	0.541863	2831.58
16.3301	0.543985	2849.4
16.4302	0.547615	2870.05
16.5303	0.550431	2889.4
16.6304	0.555	2907.165
16.7305	0.557226	2927.27
16.8306	0.561365	2946.449
16.9307	0.562957	2963.14
17.0308	0.566608	2981.08
17.1309	0.569811	3000.3
17.231	0.573912	3020.95
17.3311	0.577271	3039.77
17.4312	0.580251	3060.33
17.53125	0.583425	3080.77
17.6313	0.587377	3098.74
17.7314	0.590083	3120.01
17.8315	0.592461	3140.11
17.9316	0.596297	3157.74
18.0317	0.600404	3178.22
18.1318	0.60271	3197.696
18.2319	0.606611	3218.76
18.332	0.610027	3238.115
18.4321	0.613007	3258.19
18.5322	0.616583	3277.63
18.6323	0.618881	3298.65
18.7324	0.621989	3317.89
18.83252	0.626218	3339.36
18.9326	0.628704	3356.27
19.0327	0.633192	3376.66
19.1328	0.635073	3395.48
19.23291	0.63799	3416.37
19.333	0.641531	3434.83
19.4331	0.645414	3456.26
19.5332	0.648493	3475.15
19.6333	0.652406	3496.34
19.7334	0.655699	3516.35
19.8335	0.658664	3537.49
19.9336	0.661823	3554.27
20.0337	0.666013	3573.02
20.1338	0.668207	3596.32
20.2339	0.6723702	3616.33
20.334	0.6763339	3635.02
20.4341	0.678703	3655.47
20.53418	0.682732	3674.18
20.6343	0.685111	3696.781
20.7344	0.687462	3716.67
20.8345	0.692517	3736.73
20.93457	0.694945	3758.71
21.0347	0.6998	3781.75
21.1348	0.702184	3802.24
21.2349	0.704649	3822.35
21.335	0.708768	3840.91
21.4351	0.71249	3862.62
21.5352	0.715464	3882.63
21.6353	0.718904	3902.9
21.7354	0.72259	3922.5
21.8354	0.725117	3942.57
21.9355	0.728881	3959
22.0356	0.732046	3980.19
22.1357	0.734687	4002.99
22.23584	0.739148	4023.8
22.3359	0.742784	4042.53
22.436	0.745505	4064.32
22.5361	0.747737	4085.04
22.63623	0.752234	4107.51
22.7363	0.755173	4127.93
22.8364	0.758669	4148.6
22.9365	0.761354	4171.15
23.0366	0.765041	4189.624
23.1367	0.769079	4209.93
23.2368	0.771806	4224.41
23.3369	0.776243	4247.34
23.437	0.779125	4272.56
23.5371	0.7833302	4294.59
23.6372	0.786054	4314.57
23.7373	0.788867	4332.91
23.8374	0.792864	4352.55
23.9375	0.796175	4371.98
24.0376	0.799078	4392.37
24.1377	0.8023411	4415.04
24.2378	0.805864	4434.07
24.3379	0.809401	4450.53
24.438	0.8112967	4470.94
24.5381	0.815231	4491.48
24.6382	0.818631	4514.29
24.7383	0.822428	4534.72
24.8384	0.825298	4555.66
24.9385	0.828803	4575.72
25.0386	0.832018	4595.55
25.1387	0.83535	4616.98
25.23877	0.839809	4637.65
25.3389	0.842884	4658.24
25.439	0.846344	4678.78
25.5391	0.849432	4701.34
25.63916	0.852272	4721.57
25.7393	0.8556515	4743.209
25.8394	0.858629	4762.73
25.9395	0.86273	4783.34
26.0396	0.86551	4803.31
26.1396	0.868937	4821.41
26.2397	0.8717984	4839.99
26.3398	0.8749038	4858.84
26.4399	0.879127	4881.42
26.54	0.882548	4904.39
26.6401	0.885868	4924.77
26.7402	0.88962	4943.7
26.8403	0.892174	4965.15
26.94043	0.896513	4986.47
27.0405	0.898817	5007.38
27.1406	0.902623	5029.188
27.2407	0.905892	5049.03
27.34082	0.908706	5069.08
27.4409	0.912645	5089.46
27.541	0.916412	5110.75
27.6411	0.919381	5130.69
27.7412	0.92285	5151.83
27.8413	0.925389	5171.34
27.9414	0.929654	5191.47
28.0415	0.93281	5212.88
28.1416	0.936583	5232.74
28.2417	0.939491	5254.67
28.3418	0.942603	5274.01
28.4419	0.947276	5294.65
28.542	0.949982	5316.65
28.64209	0.952297	5338.53
28.7422	0.956398	5358.64
28.8423	0.958419	5379
28.9424	0.962794	5398.52
29.04248	0.9662956	5417.66
29.1426	0.968158	5439.32
29.2427	0.9722501	5460.72
29.3428	0.977129	5483.356
29.4429	0.97909	5501.41
29.543	0.983775	5520.71
29.6431	0.985375	5545.12
29.7432	0.989702	5568.39
29.8433	0.992063	5589.43
29.9434	0.995398	5610.44
30.0435	0.999421	5632.1
30.1436	1.00328	5652.15
30.2437	1.00628	5671.75
30.34375	1.00925	5692.75
30.4438	1.01261	5712.59
30.5439	1.01588	5733.62
30.644	1.02029	5756.21
30.7441	1.02279	5778.36
30.8442	1.02721	5801.16
30.9443	1.02894	5819.44
31.0444	1.03328	5841.793
31.1445	1.03821	5864.75
31.2446	1.04048	5885.53
31.3447	1.04285	5905.65
31.4448	1.04671	5928.11
31.5449	1.0501	5950.35
31.64502	1.0542	5967.91
31.7451	1.0571	5989.25
31.8452	1.06009	6011.09
31.9453	1.06323	6031.78
32.04541	1.067552	6052.76
32.1455	1.06957	6073.4
32.2456	1.07345	6096.12
32.3457	1.07679	6118.42
32.4458	1.08016	6139.23
32.5459	1.08357	6159.564
32.646	1.08651	6180.08
32.7461	1.08996	6198.57
32.8462	1.093787	6221.74
32.9463	1.09774	6240.99
33.0464	1.099962	6263.166
33.1465	1.103586	6284.23
33.2466	1.10701	6302.57
33.34668	1.10941	6325.12
33.4468	1.113987	6347.93
33.5469	1.11624	6367.22
33.647	1.11915	6387.02
33.74707	1.12311	6407.47
33.8472	1.12698	6426.93
33.9473	1.13035	6448.71
34.0474	1.13381	6469.74
34.1475	1.136595	6490.22
34.2476	1.14018	6512.49
34.3477	1.1432	6532.46
34.4478	1.146692	6554.35
34.5479	1.14938	6570.39
34.6479	1.15138	6581.98
34.748	1.15638	6612.9
34.8481	1.159808	6639.19
34.9482	1.16412	6661.76
35.04834	1.1676	6681.06
35.1484	1.17018	6701.11
35.2485	1.17404	6722.95
35.3486	1.17686	6742.6
35.44873	1.18011	6763.374
35.5488	1.183629	6784.6
35.6489	1.18595	6803.35
35.749	1.19034	6825.93
35.8491	1.19312	6848.04
35.9492	1.19787	6869.77
36.0493	1.20078	6889.85
36.1494	1.204	6910.07
36.2495	1.20695	6929.62
36.3496	1.21003	6948.67
36.4497	1.21346	6967.99
36.5498	1.21689	6990.33
36.6499	1.21939	7006.63
36.75	1.22331	7028.56
36.8501	1.22619	7051.24
36.9502	1.22959	7071.84
37.0503	1.23386	7092.13
37.1504	1.23605	7113.09
37.2505	1.240322	7135.66
37.3506	1.24343	7155.71
37.4507	1.24619	7177.21
37.5508	1.25022	7198.09
37.6509	1.25302	7218.84
37.751	1.25684	7240.11
37.8511	1.25866	7260.92
37.9512	1.26323	7282.52
38.05127	1.26624	7303.02
38.1514	1.26946	7322.55
38.2515	1.27258	7344.88
38.3516	1.277	7363.64
38.45166	1.27978	7384.5
38.5518	1.28302	7404.84
38.6519	1.286599	7424.78
38.752	1.28972	7445.85
38.8521	1.29273	7466.84
38.9521	1.29497	7488.99
39.0522	1.2992	7509.48
39.1523	1.30287	7530.89
39.2524	1.30706	7553.16
39.3525	1.30957	7572.3
39.4526	1.31337	7593.64
39.5527	1.31679	7615.88
39.6528	1.31919	7638.21
39.75293	1.32259	7656.6
39.853	1.32541	7678.46
39.9531	1.32979	7698.65
40.0532	1.33346	7720.76
40.15332	1.33653	7741.68
40.2534	1.33991	7762.06
40.3535	1.34279	7784.04
40.4536	1.34601	7807.03
40.5537	1.34976	7825.91
40.6538	1.35304	7848.08
40.7539	1.35559	7867.03
40.854	1.35941	7891.58
40.9541	1.36345	7911.48
41.0542	1.366511	7934.1
41.1543	1.37068	7953.74
41.2544	1.37345	7975.55
41.3545	1.3761	7996.4
41.45459	1.38031	8016.81
41.5547	1.38344	8037.06
41.6548	1.38632	8057.86
41.7549	1.39049	8079.12
41.85498	1.39332	8098.12
41.9551	1.39549	8118.49
42.0552	1.39987	8136.44
42.1553	1.40371	8158.31
42.2554	1.40684	8179.84
42.3555	1.4108	8199.88
42.4556	1.4126	8219.56
42.5557	1.4163	8244.72
42.6558	1.4204	8266.64
42.7559	1.42347	8287.82
42.856	1.42597	8308.56
42.9561	1.4289	8329.47
43.0562	1.43326	8348.38
43.15625	1.43544	8369.25
43.2563	1.43893	8391.291
43.3564	1.44325	8412.39
43.4565	1.44582	8433.03
43.5566	1.45029	8454.34
43.6567	1.45334	8473.34
43.7568	1.45709	8494.709
43.8569	1.45986	8513.82
43.957	1.46293	8533.79
44.0571	1.466915	8556.207
44.1572	1.47022	8578.12
44.2573	1.47363	8597.33
44.3574	1.47706	8618.76
44.45752	1.47954	8638.56
44.5576	1.48252	8657.86
44.6577	1.48758	8677.91
44.7578	1.48966	8700.47
44.85791	1.49207	8725.21
44.958	1.49685	8746.4
45.0581	1.50059	8766.96
45.1582	1.50396	8786.53
45.2583	1.50734	8806.6
45.3584	1.50965	8827.67
45.4585	1.51315	8847.832
45.5586	1.51688	8868.93
45.6587	1.518923	8888.2
45.7588	1.524055	8909.69
45.8589	1.526767	8929.42
45.959	1.53105	8951.24
46.0591	1.53233	8972.07
46.15918	1.53691	8995.585
46.2593	1.53933	9015.89
46.3594	1.54391	9036.77
46.4595	1.54729	9056.292
46.55957	1.54992	9074.48
46.6597	1.55411	9097.88
46.7598	1.55668	9117.73
46.8599	1.56046	9137.85
46.96	1.563	9158.2
47.0601	1.56673	9180.01
47.1602	1.57012	9200.05
47.2603	1.57337	9218.91
47.3604	1.57661	9241.3
47.4604	1.58035	9263.36
47.5605	1.58328	9283.91
47.6606	1.5864	9303.77
47.7607	1.58998	9325.11
47.86084	1.59354	9346.4
47.9609	1.59624	9368.19
48.061	1.60038	9391.64
48.1611	1.60379	9412.02
48.26123	1.6057	9429.71
48.3613	1.61013	9447.4
48.4614	1.61262	9464.54
48.5615	1.61722	9487.01
48.6616	1.61971	9507.17
48.7617	1.62362	9529.78
48.8618	1.62701	9548.52
48.9619	1.63003	9570.11
49.062	1.6334	9594.03
49.1621	1.63796	9613.89
49.2622	1.64005	9635.89
49.3623	1.643762	9656.61
49.4624	1.646924	9675.86
49.5625	1.65011	9696.11
49.6626	1.65402	9716.6
49.7627	1.65638	9737.32
49.8628	1.65931	9760.31
49.9629	1.66344	9777.38
50.063	1.66616	9797.09
50.1631	1.67011	9816.61
50.2632	1.67428	9837.05
50.3633	1.6766	9856.15
50.4634	1.67954	9876.19
50.5635	1.68264	9897.73
50.6636	1.68693	9918.375
50.7637	1.69024	9938.26
50.86377	1.69297	9959
50.9639	1.69719	9978.49
51.064	1.70001	9999.75
51.1641	1.704666	10008.957
51.26416	1.70646	10030.666
51.3643	1.71005	10050.429
51.4644	1.71267	10071.63
51.5645	1.71671	10093.322
51.6646	1.71995	10114.607
51.7646	1.7235	10133.504
51.8647	1.72748	10155.813
51.9648	1.73022	10177.701
52.0649	1.73352	10197.906
52.165	1.73773	10217.964
52.2651	1.7397	10238.505
52.3652	1.74293	10257.914
52.4653	1.74727	10276.992
52.56543	1.74909	10298.013
52.6655	1.75399	10318.586
52.7656	1.75655	10339.108
52.8657	1.76057	10335.828
52.96582	1.76358	10354.105
53.0659	1.766035	10374.047
53.166	1.76918	10394.684
53.2661	1.77326	10414.968
53.3662	1.7759	10435.326
53.4663	1.78031	10455.538
53.5664	1.783672	10477.499
53.6665	1.78671	10497.559
53.7666	1.78908	10517.399
53.8667	1.792416	10539.629
53.9668	1.79624	10558.023
54.0669	1.80092	10578.847
54.167	1.80302	10598.356
54.26709	1.80638	10619.181
54.3672	1.80936	10640.19
54.4673	1.813373	10662.632
54.5674	1.816383	10685.073
54.66748	1.819253	10704.699
54.7676	1.82375	10723.91
54.8677	1.82715	10743.714
54.9678	1.83008	10765.291
55.0679	1.83277	10785.557
55.168	1.8369	10805.036
55.2681	1.83887	10822.875
55.3682	1.84329	10839.507
55.4683	1.84662	10861.031
55.5684	1.849702	10878.989
55.6685	1.85343	10901.104
55.7686	1.85619	10921
55.8687	1.8597	10942.508
55.96875	1.86368	10959.781
56.0688	1.86614	10979.026
56.1689	1.86977	11000.901
56.269	1.87304	11021.738
56.3691	1.87708	11042.068
56.4692	1.88069	11061.292
56.5693	1.88327	11081.157
56.6694	1.88631	11102.061
56.7695	1.88985	11119.182
56.8696	1.893	11140.208
56.9697	1.89682	11162.477
57.0698	1.899603	11176.192
57.1699	1.90269	11193.515
57.27002	1.90614	11215.009
57.3701	1.91074	11236.404
57.4702	1.91293	11258.167
57.5703	1.91719	11281.439
57.67041	1.91936	11302.29
57.7705	1.92287	11323.479
57.8706	1.92687	11343.807
57.9707	1.929602	11363.341
58.0708	1.93295	11379.759
58.1709	1.93615	11401.351
58.271	1.94048	11424.079
58.3711	1.94492	11445.339
58.4712	1.945889	11464.733
58.5713	1.95044	11487.813
58.6714	1.9533	11510.89
58.7715	1.95611	11529.762
58.8716	1.960057	11550.777
58.97168	1.96378	11571.987
59.0718	1.96739	11592.837
59.1719	1.96871	11610.354
59.272	1.97332	11628.497
59.37207	1.97702	11648.69
59.4722	1.979509	11666.135
59.5723	1.983726	11687.047
59.6724	1.98549	11706.102
59.7725	1.99	11728.731
59.8726	1.99314	11748.693
59.9727	1.99727	11769.872
60.0728	2.00026	11788.661
60.1729	2.00505	11811.581
60.2729	2.007	11829.375
60.373	2.01006	11850.363
60.4731	2.01363	11868.325
60.5732	2.0167	11889.473
60.67334	2.02062	11909.395
60.7734	2.02306	11929.651
60.8735	2.02635	11937.909
60.9736	2.03037	11958.471
61.07373	2.03381	11978.314
61.1738	2.03597	11997.918
61.2739	2.0402	12019.238
61.374	2.045217	12040.312
61.4741	2.04775	12058.543
61.5742	2.05044	12080.086
61.6743	2.05406	12104.381
61.7744	2.05835	12127.364
61.8745	2.06152	12146.893
61.9746	2.06448	12165.742
62.0747	2.06777	12184.22
62.1748	2.07251	12066.832
62.2749	2.07582	12082.642
62.375	2.07825	12103.646
62.4751	2.08196	12121.914
62.5752	2.08496	12138.382
62.6753	2.08719	12157.941
62.7754	2.09141	12181.026
62.8755	2.09378	12198.786
62.9756	2.09725	12221.942
63.0757	2.09974	12241.304
63.1758	2.10456	12260.105
63.2759	2.10767	12265.663
63.376	2.11027	12283.692
63.4761	2.11359	12304.453
63.5762	2.117604	12315.651
63.67627	2.11984	12335.314
63.7764	2.1247	12277.903
63.8765	2.12857	12307.121
63.9766	2.13093	12326.354
64.07666	2.13428	12346.828
64.1768	2.13757	12364.606
64.2769	2.14026	12381.957
64.377	2.14407	12400.565
64.4771	2.14755	12414.051
64.5771	2.15049	12435.353
64.6772	2.15281	12452.885
64.7773	2.15697	12474.711
64.8774	2.15995	12495.448
64.9775	2.16484	12513.751
65.0776	2.16654	12532.424
65.1777	2.16935	12546.936
65.2778	2.17399	12545.45
65.37793	2.17721	12566.251
65.478	2.18102	12584.065
65.5781	2.18365	12604.778
65.6782	2.18692	12626.688
65.77832	2.19007	12646.741
65.8784	2.19499	12665.313
65.9785	2.197084	12686.14
66.0786	2.2011	12706.476
66.1787	2.20441	12718.298
66.2788	2.20733	12738.981
66.3789	2.21138	12758.876
66.479	2.213347	12778.122
66.5791	2.21791	12800.236
66.6792	2.22041	12817.959
66.7793	2.22366	12839.155
66.8794	2.22666	12858.563
66.9795	2.23087	12880.004
67.07959	2.23347	12900.023
67.1797	2.23715	12919.433
67.2798	2.24009	12939.722
67.3799	2.24347	12958.748
67.47998	2.25023	12617.194
67.5801	2.25403	12576.072
67.6802	2.25595	12593.276
67.7803	2.25955	12573.396
67.8804	2.26232	12590.407
67.9805	2.26635	12609.203
68.0806	2.2691	12626.758
68.1807	2.27231	12647.016
68.2808	2.27655	12669.056
68.3809	2.27839	12684.949
68.481	2.28275	12657.186
68.5811	2.28595	12656.596
68.6812	2.29215	12310.985
68.78125	2.296561	12275.482
68.8813	2.297482	12286.723
68.9814	2.30005	12304.15
69.0815	2.30407	12323.374
69.1816	2.30954	12038.542
69.2817	2.31318	12038.743
69.3818	2.31529	12050.175
69.4819	2.3187	12063.906
69.582	2.32049	12078.572
69.6821	2.32336	12096.498
69.7822	2.32727	12113.964
69.8823	2.33097	12130.562
69.9824	2.33353	12148.228
70.08252	2.33676	12163.951
70.1826	2.34067	12171.092
70.2827	2.34333	12185.878