File: dublin_poster_plots/Tensile Tests - Quenched Samples 20180604/BLPX-M1-Q030-05_20180604/specimen.dat
MTS793|MPT|ENU|1|2|.|/|:|1|0|0|A

Data Acquisition						Time:	70.563	s	6/4/2018 3:55:31 PM
Time	MTS 4 Displacement 4	MTS 4 Force 4
s	mm	N
0.114258	-0.000521541	-15.7224
0.214355	0.00327826	-8.289609
0.314453	0.00620186	0.270922
0.414551	0.00960827	10.2138
0.514648	0.0134885	20.3156
0.614746	0.0157058	29.4675
0.714844	0.0200123	39.5591
0.814941	0.0243276	46.7298
0.915039	0.0255018	56.7548
1.01514	0.0300795	68.1125
1.11523	0.03400445	77.3957
1.215332	0.0365973	86.7297
1.31543	0.0398278	96.2666
1.41553	0.0433028	108.7
1.515625	0.0473171	118.468
1.61572	0.0500292	131.255
1.71582	0.0537843	142.347
1.815918	0.056234	144.255
1.91602	0.06057322	151.302
2.01611	0.0638753	161.103
2.11621	0.0674784	173.131
2.21631	0.06890893	185.26
2.31641	0.07276535	198.654
2.4165	0.07660985	210.035
2.5166	0.080359	219.351
2.6167	0.0835508	233.447
2.7168	0.0861466	249.092
2.81689	0.0888616	263.036
2.91699	0.0924915	277.47
3.01709	0.0968933	291.9024
3.11719	0.0993788	306.477
3.21729	0.103259	322.333
3.31738	0.106394	337.623
3.41748	0.108972	354.292
3.51758	0.113252	371.112
3.61768	0.116944	388.404
3.71777	0.119162	404.445
3.81787	0.12289	417.801
3.91797	0.126258	437.1683
4.01807	0.129205	455.1015
4.11816	0.1331538	469.9722
4.21826	0.136533	486.96
4.31836	0.1395762	500.857
4.418457	0.142902	519.449
4.51855	0.146708	537.998
4.61865	0.1494348	556.674
4.71875	0.152159	572.913
4.81885	0.155133	592.207
4.91895	0.159118	613.547
5.019043	0.162768	631.572
5.11914	0.167125	649.553
5.21924	0.168931	667.819
5.31934	0.172052	686.58
5.41943	0.175855	707.0304
5.51953	0.178105	724.151
5.61963	0.183436	744.583
5.71973	0.186354	763.616
5.81982	0.189272	782.4502
5.91992	0.192931	802.87
6.02002	0.19567	822.268
6.12012	0.19933	840.4101
6.22021	0.202528	860.833
6.32031	0.205994	879.532
6.42041	0.209537	900.6795
6.52051	0.212291	918.531
6.62061	0.215596	938.834
6.7207	0.2175808	957.557
6.8208	0.222191	977.126
6.9209	0.225922	998.461
7.021	0.22912	1019.373
7.12109	0.2322644	1038.47
7.22119	0.235623	1058.67
7.32129	0.23922	1078.23
7.42139	0.2425611	1097.56
7.52148	0.2448976	1115.34
7.621582	0.248599	1137.95
7.72168	0.251988	1157.16
7.82178	0.255561	1176.63
7.921875	0.258711	1196.43
8.02197	0.262234	1217.8
8.12207	0.265554	1238.2
8.222168	0.270015	1260.47
8.32227	0.273117	1280.04
8.42236	0.276339	1300.98
8.52246	0.278836	1320.62
8.62256	0.282341	1341.69
8.72266	0.286031	1361.66
8.82275	0.288269	1379.44
8.92285	0.29369	1400.29
9.02295	0.294653	1417.22
9.12305	0.299063	1441.03
9.22314	0.302386	1460.73
9.32324	0.306079	1480.31
9.42334	0.309944	1501.02
9.52344	0.3120333	1521.04
9.62354	0.315699	1540.73
9.72363	0.318697	1562.53
9.82373	0.322422	1586.43
9.92383	0.326726	1607.44
10.0239	0.329226	1624.09
10.124	0.332105	1646.12
10.2241	0.336084	1667.66
10.3242	0.339088	1687.44
10.4243	0.3429	1708.59
10.5244	0.346079	1728.54
10.6245	0.350168	1747.83
10.7246	0.352174	1768.69
10.8247	0.355583	1786.15
10.9248	0.35882	1802.97
11.0249	0.362635	1830.35
11.125	0.366288	1853.75
11.2251	0.36954	1872.483
11.3252	0.3726989	1891.97
11.4253	0.375119	1909.71
11.5254	0.379345	1930.72
11.6255	0.383037	1950.11
11.7256	0.385475	1970.49
11.8257	0.38946	1991.6
11.9258	0.3932327	2013.34
12.0259	0.395754	2035.6
12.126	0.399241	2055.31
12.2261	0.401711	2076.03
12.3262	0.406331	2095.3
12.42627	0.408253	2114.48
12.5264	0.412798	2129.44
12.6265	0.415474	2150.35
12.7266	0.419524	2171.33
12.82666	0.422937	2192.68
12.9268	0.425288	2209.34
13.0269	0.428033	2231.11
13.127	0.432897	2255.99
13.2271	0.4357487	2277.61
13.3271	0.43838	2297.53
13.4272	0.4429698	2319.22
13.5273	0.44708	2340.08
13.6274	0.4506737	2364.06
13.7275	0.453782	2388.33
13.8276	0.460532	2416.52
13.9277	0.465804	2457.96
14.0278	0.468922	2479.26
14.12793	0.47226	2499.2
14.228	0.476065	2525.3
14.3281	0.480667	2546.55
14.4282	0.482804	2565.59
14.52832	0.4860729	2585.1
14.6284	0.490054	2604.61
14.7285	0.493652	2623.73
14.8286	0.496876	2642.49
14.9287	0.500092	2658.48
15.0288	0.501671	2676.77
15.1289	0.505695	2698.02
15.229	0.508872	2716.96
15.3291	0.511986	2737.553
15.4292	0.514209	2757.34
15.5293	0.519079	2777.35
15.6294	0.521198	2797.66
15.7295	0.5248487	2818.219
15.82959	0.528425	2834.21
15.9297	0.531116	2853.75
16.0298	0.534955	2871.22
16.1299	0.53767	2891.627
16.22998	0.540495	2909.11
16.3301	0.544217	2929.93
16.4302	0.5477041	2948.81
16.5303	0.551009	2971.38
16.6304	0.555044	2987.91
16.7305	0.556493	3007.61
16.8306	0.560176	3028.02
16.9307	0.563416	3049.55
17.0308	0.566319	3068.624
17.1309	0.569725	3087.238
17.231	0.573477	3107.969
17.3311	0.57669	3127.52
17.4312	0.5790621	3146.13
17.53125	0.583303	3168.07
17.6313	0.586742	3190.38
17.7314	0.590175	3208.78
17.8315	0.593728	3228.11
17.9316	0.596714	3248.69
18.0317	0.598922	3266.68
18.1318	0.603887	3287.92
18.2319	0.606361	3307.44
18.332	0.609866	3326.36
18.4321	0.612932	3345.74
18.5322	0.615883	3365.65
18.6323	0.6190449	3386.46
18.7324	0.622213	3405.9
18.83252	0.626403	3425.249
18.9326	0.630185	3445.59
19.0327	0.632843	3464.66
19.1328	0.635397	3486.52
19.23291	0.638202	3507.16
19.333	0.642195	3530.14
19.4331	0.646165	3549.44
19.5332	0.648165	3570.66
19.6333	0.652567	3590.8
19.7334	0.655648	3610.07
19.8335	0.658223	3629.62
19.9336	0.662243	3650.6
20.0337	0.66568	3668.19
20.1338	0.66891	3686.22
20.2339	0.6713599	3706.87
20.334	0.675347	3726.8
20.4341	0.678691	3747.14
20.53418	0.6819725	3768.68
20.6343	0.685647	3790.18
20.7344	0.687665	3808.46
20.8345	0.69142	3830.26
20.93457	0.695175	3853.38
21.0347	0.697303	3874.62
21.1348	0.702298	3895.39
21.2349	0.705051	3915.7
21.335	0.708592	3938.24
21.4351	0.711262	3958.2
21.5352	0.715223	3977.78
21.6353	0.718966	3996.57
21.7354	0.7212311	4015.87
21.8354	0.724176	4035.39
21.9355	0.730431	4056.17
22.0356	0.731343	4077.49
22.1357	0.735033	4097.37
22.23584	0.738019	4117.62
22.3359	0.742131	4136.27
22.436	0.745329	4157.7
22.5361	0.748545	4178.145
22.63623	0.752661	4199.63
22.7363	0.755006	4220.27
22.8364	0.759166	4241.69
22.9365	0.761691	4265.8
23.0366	0.765595	4286.54
23.1367	0.768211	4308.91
23.2368	0.772715	4328.65
23.3369	0.775334	4348.374
23.437	0.778779	4368.13
23.5371	0.781122	4389.13
23.6372	0.784513	4409.51
23.7373	0.788027	4431.09
23.8374	0.79143	4452.76
23.9375	0.795558	4471.67
24.0376	0.7994473	4492.21
24.1377	0.802144	4513.45
24.2378	0.804761	4534.5
24.3379	0.8089602	4553.52
24.438	0.812945	4573.77
24.5381	0.815552	4594.1
24.6382	0.818226	4616.45
24.7383	0.823262	4635.98
24.8384	0.825432	4654.05
24.9385	0.828576	4674.417
25.0386	0.831673	4695.23
25.1387	0.835708	4716.99
25.23877	0.837934	4738.271
25.3389	0.841227	4759.9
25.439	0.845492	4782.458
25.5391	0.848132	4804.94
25.63916	0.852939	4827.6
25.7393	0.8559823	4848.44
25.8394	0.858924	4867.55
25.9395	0.861129	4887.59
26.0396	0.8653909	4910.88
26.1396	0.868538	4933.6
26.2397	0.872314	4954.28
26.3398	0.8749038	4974.35
26.4399	0.878003	4994.55
26.54	0.881258	5015.82
26.6401	0.885323	5035.82
26.7402	0.888935	5055.69
26.8403	0.891981	5078.79
26.94043	0.895387	5099.23
27.0405	0.8990854	5119.67
27.1406	0.9024173	5140.59
27.2407	0.905874	5161.36
27.34082	0.90977	5179.18
27.4409	0.912294	5201.98
27.541	0.915647	5222.98
27.6411	0.918949	5244.03
27.7412	0.922358	5265.61
27.8413	0.925666	5286
27.9414	0.929141	5309.29
28.0415	0.932768	5330.09
28.1416	0.935712	5350.26
28.2417	0.939453	5371.62
28.3418	0.943035	5392.11
28.4419	0.946051	5409.8
28.542	0.949338	5432.3
28.64209	0.952414	5453.65
28.7422	0.956109	5476.43
28.8423	0.959232	5497.19
28.9424	0.961387	5518.93
29.04248	0.965914	5538.46
29.1426	0.968233	5558.9
29.2427	0.972119	5582.06
29.3428	0.976017	5603.76
29.4429	0.979194	5623.97
29.543	0.982508	5645.6
29.6431	0.98528	5666.28
29.7432	0.988883	5684.31
29.8433	0.992376	5707.39
29.9434	0.996161	5726.15
30.0435	0.998959	5745.84
30.1436	1.00231	5762.68
30.2437	1.00538	5784.15
30.34375	1.00839	5807.22
30.4438	1.01268	5828.18
30.5439	1.01587	5847.66
30.644	1.01873	5871.42
30.7441	1.02151	5891.98
30.8442	1.02502	5915.18
30.9443	1.028797	5938.67
31.0444	1.032424	5959.21
31.1445	1.0365	5981.23
31.2446	1.03914	6005.32
31.3447	1.043877	6028.06
31.4448	1.04711	6048.18
31.5449	1.05056	6070.14
31.64502	1.05256	6092.26
31.7451	1.05663	6111.72
31.8452	1.05824	6133.69
31.9453	1.06327	6155.36
32.04541	1.06659	6176.76
32.1455	1.06902	6199.43
32.2456	1.07163	6215.14
32.3457	1.0756	6240.95
32.4458	1.08051	6261.68
32.5459	1.08189	6286.58
32.646	1.08634	6306.68
32.7461	1.08982	6329.91
32.8462	1.0934	6350.15
32.9463	1.09704	6369.93
33.0464	1.09896	6390.43
33.1465	1.1027	6412.51
33.2466	1.106745	6431.74
33.34668	1.10908	6452.69
33.4468	1.11276	6474.04
33.5469	1.11528	6495.37
33.647	1.118505	6514.8
33.74707	1.12166	6537.48
33.8472	1.12626	6558.32
33.9473	1.12848	6580.18
34.0474	1.13311	6601.38
34.1475	1.13651	6620.998
34.2476	1.13978	6642.14
34.3477	1.14151	6663.04
34.4478	1.14691	6685.96
34.5479	1.15105	6705.45
34.6479	1.153037	6726.35
34.748	1.15618	6746.89
34.8481	1.15908	6769.28
34.9482	1.16386	6791.86
35.04834	1.16623	6812.51
35.1484	1.1698	6830.63
35.2485	1.17228	6849.88
35.3486	1.17654	6873.71
35.44873	1.179865	6894.65
35.5488	1.18338	6918.24
35.6489	1.18617	6940.85
35.749	1.18944	6963.55
35.8491	1.19347	6984.98
35.9492	1.19592	7006.34
36.0493	1.198864	7028.19
36.1494	1.20359	7047.25
36.2495	1.20614	7067.97
36.3496	1.21019	7088.83
36.4497	1.21279	7109.75
36.5498	1.21621	7129.65
36.6499	1.21991	7152.68
36.75	1.22254	7173.69
36.8501	1.22569	7195.39
36.9502	1.22964	7216.02
37.0503	1.23299	7235.32
37.1504	1.23702	7256.688
37.2505	1.23976	7277.71
37.3506	1.24256	7299.84
37.4507	1.24546	7321.876
37.5508	1.24945	7344.33
37.6509	1.25385	7365.8
37.751	1.25594	7385.22
37.8511	1.25925	7407.02
37.9512	1.26219	7429.502
38.05127	1.2653	7451.56
38.1514	1.26952	7473.88
38.2515	1.27475	7495.103
38.3516	1.27701	7516.97
38.45166	1.27999	7540.79
38.5518	1.28447	7563.02
38.6519	1.28704	7583.9
38.752	1.2915	7604.18
38.8521	1.29237	7624.085
38.9521	1.29686	7645.28
39.0522	1.29921	7662.99
39.1523	1.30356	7684.84
39.2524	1.30655	7703.8
39.3525	1.309	7726.49
39.4526	1.31373	7749.22
39.5527	1.31723	7770.43
39.6528	1.31928	7792.99
39.75293	1.32381	7818.73
39.853	1.32684	7839.59
39.9531	1.33015	7861.2
40.0532	1.33233	7880.08
40.15332	1.33578	7901.48
40.2534	1.339063	7921.76
40.3535	1.34422	7942.68
40.4536	1.3472	7962.07
40.5537	1.34984	7984.32
40.6538	1.35193	8007.43
40.7539	1.35646	8027.25
40.854	1.3597	8050.06
40.9541	1.36268	8069.3
41.0542	1.36563	8089.93
41.1543	1.37019	8112.23
41.2544	1.37237	8133.79
41.3545	1.37719	8155.12
41.45459	1.38043	8176.17
41.5547	1.38361	8197.63
41.6548	1.38673	8219.458
41.7549	1.38962	8237.01
41.85498	1.39266	8256.3
41.9551	1.39594	8278.78
42.0552	1.40098	8301.32
42.1553	1.40337	8324.09
42.2554	1.40643	8347.1
42.3555	1.41074	8366.18
42.4556	1.41311	8386.57
42.5557	1.41602	8409.58
42.6558	1.419431	8431.12
42.7559	1.42482	8453.04
42.856	1.42673	8471.832
42.9561	1.43148	8494.7
43.0562	1.43365	8517.94
43.15625	1.43658	8541.62
43.2563	1.43988	8561.98
43.3564	1.44268	8583.582
43.4565	1.447022	8605.127
43.5566	1.45019	8626.99
43.6567	1.45309	8646.76
43.7568	1.45645	8668.22
43.8569	1.45944	8688.73
43.957	1.4631	8708.56
44.0571	1.46638	8729.3
44.1572	1.46998	8750.416
44.2573	1.473248	8772.32
44.3574	1.47632	8793.68
44.45752	1.48035	8814.65
44.5576	1.48262	8834.61
44.6577	1.48641	8859.9
44.7578	1.49015	8882.18
44.85791	1.49287	8902.35
44.958	1.49735	8925.5
45.0581	1.50029	8946.54
45.1582	1.503554	8967.73
45.2583	1.50681	8988.834
45.3584	1.51066	9011.05
45.4585	1.51378	9031.02
45.5586	1.51669	9051.75
45.6587	1.52011	9071.67
45.7588	1.52359	9092.3
45.8589	1.52644	9113.26
45.959	1.52986	9133.23
46.0591	1.53289	9156.35
46.15918	1.53649	9178.458
46.2593	1.54053	9200.71
46.3594	1.54298	9220.98
46.4595	1.546371	9241.11
46.55957	1.54986	9262.15
46.6597	1.55253	9281.89
46.7598	1.55764	9303.76
46.8599	1.56035	9324.79
46.96	1.56252	9311.5
47.0601	1.56713	9332.77
47.1602	1.56939	9355.27
47.2603	1.573354	9377.45
47.3604	1.57791	9398.09
47.4604	1.57976	9422.06
47.5605	1.58334	9442.37
47.6606	1.58748	9463.36
47.7607	1.59014	9485.02
47.86084	1.59347	9504.47
47.9609	1.59619	9525.61
48.061	1.60025	9547.33
48.1611	1.60338	9571.47
48.26123	1.606828	9590.59
48.3613	1.610142	9613.97
48.4614	1.61352	9635.69
48.5615	1.61667	9657.94
48.6616	1.61991	9676.73
48.7617	1.62256	9697.29
48.8618	1.62677	9717.99
48.9619	1.62993	9741.87
49.062	1.6339	9764.09
49.1621	1.63645	9784.28
49.2622	1.64084	9806.65
49.3623	1.6431	9826.751
49.4624	1.64815	9849.97
49.5625	1.65097	9868.36
49.6626	1.653108	9889.41
49.7627	1.65613	9910.07
49.8628	1.66054	9933.38
49.9629	1.66309	9954.87
50.063	1.66662	9976.08
50.1631	1.67009	9995.99
50.2632	1.67274	10016.626
50.3633	1.67654	10036.664
50.4634	1.68023	10060.894
50.5635	1.683256	10080.863
50.6636	1.68725	10102.306
50.7637	1.69014	10122.92
50.86377	1.6927	10146.244
50.9639	1.69658	10168.4
51.064	1.70012	10188.85
51.1641	1.70336	10207.804
51.26416	1.70666	10234.388
51.3643	1.71021	10256.15
51.4644	1.71404	10276.966
51.5645	1.71784	10295.093
51.6646	1.72119	10316.432
51.7646	1.72336	10336.934
51.8647	1.72708	10357.187
51.9648	1.73048	10377.236
52.0649	1.73309	10398.26
52.165	1.73809	10419.088
52.2651	1.74046	10440.351
52.3652	1.74355	10461.151
52.4653	1.7469	10483.543
52.56543	1.75193	10505.218
52.6655	1.75347	10525.645
52.7656	1.75643	10547.124
52.8657	1.76025	10555.17
52.96582	1.76337	10575.498
53.0659	1.7666	10594.993
53.166	1.77016	10615.746
53.2661	1.77254	10633.123
53.3662	1.77687	10656.491
53.4663	1.78025	10679.465
53.5664	1.78301	10699.481
53.6665	1.78721	10718.422
53.7666	1.79026	10741.103
53.8667	1.79299	10761.569
53.9668	1.79719	10779.865
54.0669	1.80002	10799.937
54.167	1.804	10820.709
54.26709	1.80708	10843.331
54.3672	1.80922	10865.548
54.4673	1.81481	10888.307
54.5674	1.81696	10905.153
54.66748	1.82042	10929.041
54.7676	1.82364	10950.425
54.8677	1.82692	10971.322
54.9678	1.83036	10991.616
55.0679	1.83386	11013.911
55.168	1.83775	11033.717
55.2681	1.84017	11054.755
55.3682	1.84423	11073.269
55.4683	1.84715	11095.063
55.5684	1.850307	11114.741
55.6685	1.85372	11135.663
55.7686	1.85745	11155.484
55.8687	1.86109	11177.2
55.96875	1.86505	11195.211
56.0688	1.86772	11213.584
56.1689	1.87147	11235.076
56.269	1.87317	11256.964
56.3691	1.87688	11280.867
56.4692	1.88141	11300.3
56.5693	1.88411	11321.225
56.6694	1.88782	11328.338
56.7695	1.89148	11349.785
56.8696	1.89334	11362.026
56.9697	1.8963	11382.983
57.0698	1.90053	11401.893
57.1699	1.9032	11424.953
57.27002	1.90698	11446.012
57.3701	1.91115	11465.808
57.4702	1.91424	11487.343
57.5703	1.91763	11506.909
57.67041	1.92017	11486.552
57.7705	1.92427	11507.774
57.8706	1.92714	11528.534
57.9707	1.9315	11549.305
58.0708	1.93484	11519.79
58.1709	1.93754	11538.478
58.271	1.94095	11560.227
58.3711	1.94474	11581.245
58.4712	1.94763	11601.188
58.5713	1.95082	11621.728
58.6714	1.95475	11643.979
58.7715	1.95778	11666.244
58.8716	1.96042	11687.103
58.97168	1.96455	11711.504
59.0718	1.96848	11732.877
59.1719	1.97082	11751.881
59.272	1.97435	11770.739
59.37207	1.97715	11793.445
59.4722	1.9815	11815.216
59.5723	1.98492	11835.446
59.6724	1.98868	11858.155
59.7725	1.99119	11879.801
59.8726	1.99566	11902.144
59.9727	1.99795	11922.834
60.0728	2.00244	11943.368
60.1729	2.0039	11965.685
60.2729	2.00768	11986.49
60.373	2.011	12008.816
60.4731	2.01475	12029.655
60.5732	2.01887	12052.399
60.67334	2.02159	12072.931
60.7734	2.0256	12093.363
60.8735	2.02914	12114.285
60.9736	2.03214	12133.211
61.07373	2.0349	12155.17
61.1738	2.03945	12176.164
61.2739	2.04331	12197.014
61.374	2.04597	12216.942
61.4741	2.04852	12239.502
61.5742	2.05239	12259.609
61.6743	2.05566	12280.023
61.7744	2.0596	12301.182
61.8745	2.06177	12321.659
61.9746	2.066195	12341.565
62.0747	2.06886	12358.958
62.1748	2.07248	12379.189
62.2749	2.07485	12398.864
62.375	2.07831	12419.724
62.4751	2.08269	12440.373
62.5752	2.08492	12459.179
62.6753	2.08885	12465.791
62.7754	2.09177	12486.363
62.8755	2.09557	12506.77
62.9756	2.09835	12525.709
63.0757	2.101922	12544.109
63.1758	2.10432	12564.436
63.2759	2.10882	12585.764
63.376	2.11252	12605.989
63.4761	2.11521	12593.928
63.5762	2.11788	12611.087
63.67627	2.12273	12630.957
63.7764	2.12438	12651.32
63.8765	2.12827	12673.628
63.9766	2.131325	12693.994
64.07666	2.135715	12712.063
64.1768	2.13713	12729.729
64.2769	2.14117	12750.878
64.377	2.144876	12773.974
64.4771	2.14709	12794.318
64.5771	2.15125	12816.577
64.6772	2.15537	12771.518
64.7773	2.15893	12797.291
64.8774	2.16114	12817.784
64.9775	2.1647	12835.995
65.0776	2.16768	12858.625
65.1777	2.17154	12878.798
65.2778	2.17494	12907.798
65.37793	2.17916	12928.218
65.478	2.1815	12947.285
65.5781	2.18599	12967.023
65.6782	2.18829	12982.264
65.77832	2.19138	13000.172
65.8784	2.19515	13015.32
65.9785	2.1982	13037.145
66.0786	2.20104	13048.971
66.1787	2.20514	13061.588
66.2788	2.208838	13076.828
66.3789	2.21119	13096.823
66.479	2.21446	13111.75
66.5791	2.21787	13130.88
66.6792	2.22058	13147.355
66.7793	2.22473	13171.565
66.8794	2.22864	13192.34
66.9795	2.23083	13209.896
67.07959	2.23421	13232.439
67.1797	2.23927	13251.065
67.2798	2.24052	13273.039
67.3799	2.24472	13294.814
67.47998	2.2484	13315.419
67.5801	2.25142	13301.618
67.6802	2.25515	13323.05
67.7803	2.25874	13342.456
67.8804	2.26197	13362.388
67.9805	2.26367	13382.158
68.0806	2.26841	13402.231
68.1807	2.270648	13425.813
68.2808	2.27466	13445.242
68.3809	2.27855	13461.292
68.481	2.28301	13441.9
68.5811	2.28491	13462.705
68.6812	2.2888	13468.984
68.78125	2.29221	13484.051
68.8813	2.29473	13498.597
68.9814	2.29866	13518.722
69.0815	2.30182	13537.803
69.1816	2.30572	13557.563
69.2817	2.30885	13578.552
69.3818	2.31026	13599.535
69.4819	2.31404	13617.313
69.582	2.31758	13639.935
69.6821	2.32148	13659.146
69.7822	2.3241	13681.018
69.8823	2.32779	13700.887
69.9824	2.330178	13722.289
70.08252	2.33434	13740.461
70.1826	2.33773	13761.713
70.2827	2.34111	13780.088
70.3828	2.34467	13799.529
70.48291	2.34801	13817.799