File: dublin_poster_plots/Tensile Tests - Quenched Samples 20180604/BLPX-M1-Q030-01_20180604/specimen.dat
MTS793|MPT|ENU|1|2|.|/|:|1|0|0|A

Data Acquisition						Time:	71.78418	s	6/4/2018 2:34:34 PM
Time	MTS 4 Displacement 4	MTS 4 Force 4
s	mm	N
0.114258	-0.000295043	-30.6555
0.214355	0.00187755	-21.5269
0.314453	0.00335276	-10.0623
0.414551	0.00676811	7.33994
0.514648	0.00925064	25.446
0.614746	0.01296401	44.2839
0.714844	0.0145316	64.3018
0.814941	0.0189364	83.8722
0.915039	0.0211507	102.05
1.01514	0.0252992	122.838
1.11523	0.0281364	144.216
1.215332	0.0313938	164.234
1.31543	0.03477633	182.384
1.41553	0.0388682	204.454
1.515625	0.041154	223.633
1.61572	0.0437707	242.084
1.71582	0.0463128	261.074
1.815918	0.0502527	281.231
1.91602	0.0540942	303.752
2.01611	0.0570357	326.1904
2.11621	0.0603825	349.285
2.21631	0.0645906	370.739
2.31641	0.0671893	391.261
2.4165	0.0717849	414.541
2.5166	0.07430613	434.747
2.6167	0.0772327	455.156
2.7168	0.0812113	477.538
2.81689	0.0849366	499.834
2.91699	0.0885218	522.227
3.01709	0.0925153	545.254
3.11719	0.09368062	564.1972
3.21729	0.0980258	584.939
3.31738	0.100425	604.125
3.41748	0.103229	626.3302
3.51758	0.107506	649.708
3.61768	0.110829	673.684
3.71777	0.1142323	695.937
3.81787	0.117755	715.765
3.91797	0.122219	737.99
4.01807	0.125089	760.553
4.11816	0.127611	779.82
4.21826	0.131339	801.1817
4.31836	0.134754	821.36
4.418457	0.138375	840.904
4.51855	0.141788	862.121
4.61865	0.144148	882.433
4.71875	0.1481235	902.368
4.81885	0.15054	925.251
4.91895	0.154322	945.4
5.019043	0.158224	968.157
5.11914	0.161794	989.622
5.21924	0.165102	1011.8
5.31934	0.167003	1032.12
5.41943	0.171086	1054.5
5.51953	0.1755	1075.71
5.61963	0.178477	1096.89
5.71973	0.183064	1114.52
5.81982	0.185245	1135.2
5.91992	0.188267	1156.14
6.02002	0.191602	1175.66
6.12012	0.195301	1195.62
6.22021	0.19916	1216.28
6.32031	0.201771	1238.86
6.42041	0.204575	1259.54
6.52051	0.208262	1279.28
6.62061	0.211802	1298.98
6.7207	0.215998	1318.7
6.8208	0.218794	1341.64
6.9209	0.221482	1360.56
7.021	0.225478	1381.57
7.12109	0.229311	1403.12
7.22119	0.233254	1422.663
7.32129	0.235724	1445.25
7.42139	0.238797	1467.58
7.52148	0.242394	1488.79
7.621582	0.245523	1508.99
7.72168	0.249574	1528.75
7.82178	0.252336	1549.813
7.921875	0.256172	1569.82
8.02197	0.259018	1588.25
8.12207	0.262377	1609.48
8.222168	0.26637	1626.87
8.32227	0.268757	1647.58
8.42236	0.272235	1670.67
8.52246	0.275433	1689.86
8.62256	0.279796	1711.98
8.72266	0.281987	1730.62
8.82275	0.285879	1751.764
8.92285	0.289446	1773.92
9.02295	0.293171	1792.04
9.12305	0.296471	1812.73
9.22314	0.300065	1830.62
9.32324	0.303411	1848.1
9.42334	0.306362	1868.14
9.52344	0.309718	1886.82
9.62354	0.312954	1908.1
9.72363	0.316694	1928.15
9.82373	0.319922	1949.77
9.92383	0.323182	1969.69
10.0239	0.326112	1989.57
10.124	0.329027	2009.48
10.2241	0.333562	2029.81
10.3242	0.336543	2050.91
10.4243	0.340658	2068.75
10.5244	0.343719	2089.499
10.6245	0.345799	2109.64
10.7246	0.350359	2126.98
10.8247	0.353089	2148.27
10.9248	0.356126	2168.83
11.0249	0.359875	2186.17
11.125	0.363228	2207.46
11.2251	0.366965	2223.72
11.3252	0.369763	2242.95
11.4253	0.373575	2267.717
11.5254	0.376931	2289.55
11.6255	0.379458	2308.42
11.7256	0.38439	2327.14
11.8257	0.387585	2348.626
11.9258	0.390431	2363.94
12.0259	0.393346	2383.16
12.126	0.396451	2402.66
12.2261	0.400519	2422.29
12.3262	0.403038	2442.39
12.42627	0.4077971	2462.14
12.5264	0.4103	2481.45
12.6265	0.414088	2495.72
12.7266	0.417161	2517.47
12.82666	0.419626	2536.24
12.9268	0.4237473	2555.7
13.0269	0.427285	2578.415
13.127	0.430942	2599.85
13.2271	0.433654	2619.14
13.3271	0.4368782	2638.78
13.4272	0.441197	2658.199
13.5273	0.444883	2683.26
13.6274	0.448209	2703.61
13.7275	0.451091	2722.16
13.8276	0.454837	2742.11
13.9277	0.4591912	2759.86
14.0278	0.462219	2773.886
14.12793	0.464216	2791.9
14.228	0.467688	2814.28
14.3281	0.470829	2833.38
14.4282	0.4738003	2851.533
14.52832	0.477463	2871.42
14.6284	0.480849	2895.01
14.7285	0.485229	2916.25
14.8286	0.489461	2932.35
14.9287	0.490332	2950.56
15.0288	0.495583	2973.4
15.1289	0.498191	2994.63
15.229	0.503156	3022.6
15.3291	0.506854	3047.39
15.4292	0.510812	3063.71
15.5293	0.513026	3083.99
15.6294	0.516212	3102.96
15.7295	0.518835	3121.37
15.82959	0.52239	3142.31
15.9297	0.524804	3158.41
16.0298	0.528625	3176.86
16.1299	0.533289	3196.95
16.22998	0.5343765	3216.99
16.3301	0.5377084	3236.68
16.4302	0.542468	3257.77
16.5303	0.544134	3277.168
16.6304	0.549355	3298.53
16.7305	0.553349	3317.93
16.8306	0.5551219	3339.94
16.9307	0.5597	3359.833
17.0308	0.56228	3379.16
17.1309	0.5656749	3398.43
17.231	0.569245	3417.52
17.3311	0.572819	3441.52
17.4312	0.576442	3466.77
17.53125	0.581455	3494.65
17.6313	0.585899	3519.488
17.7314	0.589398	3540.57
17.8315	0.593019	3560.42
17.9316	0.596648	3576.9
18.0317	0.598925	3595.21
18.1318	0.603116	3614.56
18.2319	0.605854	3630.75
18.332	0.6084	3648.68
18.4321	0.612158	3668.85
18.5322	0.615075	3686.3
18.6323	0.618124	3705.24
18.7324	0.622785	3726.15
18.83252	0.625825	3746.99
18.9326	0.63422	3808.41
19.0327	0.642839	3858.394
19.1328	0.646999	3877.35
19.23291	0.650015	3891.5
19.333	0.652504	3906.44
19.4331	0.655276	3922.01
19.5332	0.657904	3937.979
19.6333	0.662029	3955.968
19.7334	0.664401	3972.01
19.8335	0.667426	3990.22
19.9336	0.670066	4008.18
20.0337	0.673565	4025.04
20.1338	0.675678	4043.99
20.2339	0.678235	4061.97
20.334	0.680411	4078.66
20.4341	0.68469	4096.99
20.53418	0.68706	4115.81
20.6343	0.690302	4134.667
20.7344	0.692746	4153.22
20.8345	0.697091	4170.55
20.93457	0.699449	4188.25
21.0347	0.702751	4204.53
21.1348	0.705788	4225.04
21.2349	0.709206	4241.5
21.335	0.711837	4263.25
21.4351	0.714731	4280.66
21.5352	0.719249	4298.897
21.6353	0.721005	4318.59
21.7354	0.72493	4333.77
21.8354	0.72853	4352.72
21.9355	0.731465	4370.7
22.0356	0.733978	4390.88
22.1357	0.735977	4410.46
22.23584	0.740862	4430.34
22.3359	0.743374	4449.1
22.436	0.74625	4469.9
22.5361	0.749546	4486.333
22.63623	0.752598	4507.25
22.7363	0.756574	4524.96
22.8364	0.7589668	4545.93
22.9365	0.762948	4563.12
23.0366	0.765425	4583.32
23.1367	0.769487	4602.123
23.2368	0.7729739	4615.35
23.3369	0.7753253	4636.12
23.437	0.778064	4655.479
23.5371	0.781468	4675.377
23.6372	0.784665	4694.82
23.7373	0.7899195	4716.95
23.8374	0.791872	4734.248
23.9375	0.794891	4755.04
24.0376	0.798547	4774.91
24.1377	0.801238	4794.82
24.2378	0.804722	4815.1
24.3379	0.809315	4834.08
24.438	0.810775	4853.314
24.5381	0.814083	4873.59
24.6382	0.817966	4892.83
24.7383	0.820297	4909.92
24.8384	0.823799	4931.48
24.9385	0.828019	4951.35
25.0386	0.831372	4973.66
25.1387	0.835076	4993.14
25.23877	0.83811	5011.68
25.3389	0.839868	5033.15
25.439	0.844538	5052.44
25.5391	0.846416	5072.48
25.63916	0.849971	5093.14
25.7393	0.854248	5111.6
25.8394	0.857919	5132.17
25.9395	0.860572	5149.92
26.0396	0.864181	5169.62
26.1396	0.86824	5190.66
26.2397	0.870943	5207.42
26.3398	0.87375	5227.68
26.4399	0.876874	5247.44
26.54	0.880775	5269.16
26.6401	0.884062	5289.355
26.7402	0.888115	5310.17
26.8403	0.891238	5330.44
26.94043	0.893685	5350.97
27.0405	0.897568	5369.15
27.1406	0.899953	5387.39
27.2407	0.903198	5409.64
27.34082	0.907043	5430.53
27.4409	0.91038	5449.92
27.541	0.914693	5471.81
27.6411	0.91753	5490.91
27.7412	0.921077	5511.13
27.8413	0.923938	5533.07
27.9414	0.927064	5553.38
28.0415	0.930521	5571.25
28.1416	0.934029	5593.11
28.2417	0.937617	5612.1
28.3418	0.940764	5632.12
28.4419	0.944892	5651.43
28.542	0.94679	5672.53
28.64209	0.950029	5692.21
28.7422	0.954965	5712.3
28.8423	0.956532	5732.93
28.9424	0.960147	5754.37
29.04248	0.963664	5776.08
29.1426	0.967619	5797.43
29.2427	0.971526	5817.64
29.3428	0.974458	5837.39
29.4429	0.977418	5854.82
29.543	0.980708	5875.31
29.6431	0.984445	5896.1
29.7432	0.987545	5916.19
29.8433	0.990686	5935.77
29.9434	0.994161	5956.61
30.0435	0.997406	5977.13
30.1436	1.00135	5998.3
30.2437	1.00424	6018.16
30.34375	1.00796	6038.96
30.4438	1.01037	6059.18
30.5439	1.01422	6079.02
30.644	1.01683	6099.82
30.7441	1.02135	6120.22
30.8442	1.02612	6138.9
30.9443	1.02787	6162.06
31.0444	1.03095	6179.73
31.1445	1.03537	6201.916
31.2446	1.03823	6221.81
31.3447	1.04106	6243.12
31.4448	1.04541	6263.03
31.5449	1.04794	6284.26
31.64502	1.05114	6304.66
31.7451	1.05441	6322.41
31.8452	1.05737	6343.57
31.9453	1.06122	6363.03
32.04541	1.0654	6384.82
32.1455	1.06867	6401.45
32.2456	1.07203	6423.22
32.3457	1.0751	6443.12
32.4458	1.07821	6461.08
32.5459	1.081115	6482.58
32.646	1.08505	6502.36
32.7461	1.088351	6522.52
32.8462	1.09137	6541.45
32.9463	1.09445	6562.91
33.0464	1.09837	6582.02
33.1465	1.100865	6603.88
33.2466	1.10486	6624.84
33.34668	1.10721	6645.95
33.4468	1.11242	6667.667
33.5469	1.115033	6686.48
33.647	1.11792	6706.81
33.74707	1.1221	6725.84
33.8472	1.12526	6747.13
33.9473	1.12803	6765.97
34.0474	1.13184	6786.52
34.1475	1.13458	6803.69
34.2476	1.13779	6826.42
34.3477	1.14217	6847.93
34.4478	1.14456	6868.49
34.5479	1.1499	6887.05
34.6479	1.150766	6905.72
34.748	1.15483	6926.23
34.8481	1.15778	6948.35
34.9482	1.1623	6968.56
35.04834	1.164335	6988.55
35.1484	1.16839	7009.42
35.2485	1.17197	7031.38
35.3486	1.17561	7049.67
35.44873	1.1777	7070.54
35.5488	1.18261	7089.49
35.6489	1.18489	7109.26
35.749	1.18847	7125.64
35.8491	1.19168	7148.16
35.9492	1.19551	7169.66
36.0493	1.19857	7191.269
36.1494	1.20138	7211.44
36.2495	1.20485	7231.34
36.3496	1.2088	7251.24
36.4497	1.21281	7271.95
36.5498	1.21506	7292.55
36.6499	1.21898	7315.52
36.75	1.2226	7334.12
36.8501	1.22513	7355.39
36.9502	1.229021	7375.43
37.0503	1.231733	7394.42
37.1504	1.23531	7415.19
37.2505	1.23824	7436.11
37.3506	1.2418	7455.9
37.4507	1.24457	7475.47
37.5508	1.248908	7496.63
37.6509	1.251173	7513.9
37.751	1.25369	7536.47
37.8511	1.25899	7557.06
37.9512	1.26069	7576.65
38.05127	1.2657	7600.29
38.1514	1.26882	7620.68
38.2515	1.27162	7641.61
38.3516	1.27597	7663.39
38.45166	1.27864	7680.83
38.5518	1.28171	7702.32
38.6519	1.28593	7720.63
38.752	1.28741	7738.99
38.8521	1.290834	7759.97
38.9521	1.29504	7781.33
39.0522	1.2983	7802.33
39.1523	1.30172	7821.96
39.2524	1.30447	7843.91
39.3525	1.30874	7863.16
39.4526	1.31186	7884.6
39.5527	1.31523	7904.92
39.6528	1.3184	7923.77
39.75293	1.3219	7945.52
39.853	1.32543	7965.99
39.9531	1.32864	7987.56
40.0532	1.33311	8008.82
40.15332	1.33537	8027.67
40.2534	1.33903	8049.6
40.3535	1.34137	8067.08
40.4536	1.34539	8083.29
40.5537	1.34881	8105.76
40.6538	1.35215	8126.02
40.7539	1.35548	8149.019
40.854	1.35881	8167.72
40.9541	1.36219	8190.42
41.0542	1.36564	8214.68
41.1543	1.36888	8234.98
41.2544	1.37216	8252.18
41.3545	1.37655	8271.86
41.45459	1.378876	8281.77
41.5547	1.3826	8300.67
41.6548	1.38597	8321
41.7549	1.38922	8340.291
41.85498	1.39181	8361.72
41.9551	1.39566	8380.22
42.0552	1.39866	8401.458
42.1553	1.40242	8421.46
42.2554	1.40584	8442.59
42.3555	1.408124	8459.99
42.4556	1.41194	8480.126
42.5557	1.41542	8503.3
42.6558	1.41748	8523.73
42.7559	1.42089	8544.16
42.856	1.42687	8564.94
42.9561	1.428178	8583.55
43.0562	1.43308	8605.45
43.15625	1.43669	8625.85
43.2563	1.43881	8647.15
43.3564	1.44262	8668
43.4565	1.44588	8686.36
43.5566	1.44929	8706.78
43.6567	1.45221	8726.23
43.7568	1.45599	8746.7
43.8569	1.45887	8768.31
43.957	1.46289	8786.54
44.0571	1.46591	8807.18
44.1572	1.467973	8826.84
44.2573	1.472798	8847.66
44.3574	1.47525	8867.87
44.45752	1.47899	8888.85
44.5576	1.48224	8908.4
44.6577	1.485607	8928.91
44.7578	1.48916	8945.72
44.85791	1.49242	8967.21
44.958	1.49736	8987.19
45.0581	1.49879	9006.86
45.1582	1.50306	9028.83
45.2583	1.50534	9047.63
45.3584	1.50825	9066.81
45.4585	1.51138	9087.23
45.5586	1.5154	9107.252
45.6587	1.51931	9125.31
45.7588	1.5226	9145.667
45.8589	1.526618	9166.63
45.959	1.52957	9188.38
46.0591	1.53258	9206.82
46.15918	1.5359	9227.89
46.2593	1.53908	9246.98
46.3594	1.54179	9269.25
46.4595	1.54692	9287.44
46.55957	1.54945	9307.57
46.6597	1.55298	9329.14
46.7598	1.55506	9349.27
46.8599	1.5595	9369.95
46.96	1.5635	9389.86
47.0601	1.5669	9410.94
47.1602	1.56927	9428.45
47.2603	1.57264	9450.48
47.3604	1.5756	9469.77
47.4604	1.57934	9490.52
47.5605	1.58328	9510.78
47.6606	1.58614	9530.47
47.7607	1.58836	9552.01
47.86084	1.59247	9571.52
47.9609	1.59585	9591.46
48.061	1.59914	9609.11
48.1611	1.60299	9630.6
48.26123	1.60595	9651.39
48.3613	1.609239	9672.05
48.4614	1.612246	9693.85
48.5615	1.61612	9713.3
48.6616	1.62017	9734.94
48.7617	1.622501	9755.95
48.8618	1.62506	9776.71
48.9619	1.62955	9796.21
49.062	1.63345	9816.57
49.1621	1.63634	9835.8
49.2622	1.63881	9856.4
49.3623	1.64253	9877.13
49.4624	1.64607	9893.39
49.5625	1.64912	9911.07
49.6626	1.652348	9933.54
49.7627	1.656881	9956.22
49.8628	1.66157	9972.47
49.9629	1.6627	9997.71
50.063	1.66782	10018.776
50.1631	1.66995	10038.67
50.2632	1.67365	10057.198
50.3633	1.67682	10077.553
50.4634	1.68012	10093.939
50.5635	1.68293	10113.577
50.6636	1.68717	10132.673
50.7637	1.6904	10151.791
50.86377	1.69356	10170.602
50.9639	1.69735	10189.289
51.064	1.69936	10205.778
51.1641	1.70172	10226.467
51.26416	1.70615	10246.889
51.3643	1.70894	10268.758
51.4644	1.712811	10288.49
51.5645	1.7163	10305.349
51.6646	1.7201	10324.279
51.7646	1.72262	10340.86
51.8647	1.72535	10362.066
51.9648	1.73058	10382.694
52.0649	1.73364	10405.353
52.165	1.73789	10424.927
52.2651	1.73956	10444.616
52.3652	1.74365	10466.147
52.4653	1.74616	10485.222
52.56543	1.75118	10503.595
52.6655	1.75317	10524.411
52.7656	1.75647	10544.946
52.8657	1.76038	10564.822
52.96582	1.76258	10585.41
53.0659	1.76653	10603.702
53.166	1.76962	10624.394
53.2661	1.77245	10643.262
53.3662	1.77606	10662.74
53.4663	1.7794	10682.918
53.5664	1.78226	10703.565
53.6665	1.786	10716.943
53.7666	1.79076	10723.453
53.8667	1.79351	10742.095
53.9668	1.79673	10764.533
54.0669	1.79977	10783.292
54.167	1.80453	10801.281
54.26709	1.8071	10819.411
54.3672	1.80923	10838.4
54.4673	1.81341	10841.313
54.5674	1.815775	10863.383
54.66748	1.820004	10879.557
54.7676	1.822719	10900.658
54.8677	1.82604	10919.424
54.9678	1.82997	10936.411
55.0679	1.8327	10956.581
55.168	1.83588	10975.284
55.2681	1.83952	10994.891
55.3682	1.84263	11013.517
55.4683	1.84587	11034.453
55.5684	1.85089	11053.725
55.6685	1.85278	11073.512
55.7686	1.85626	11089.837
55.8687	1.85985	11108.451
55.96875	1.8635	11128.015
56.0688	1.86513	11146.773
56.1689	1.87003	11166.911
56.269	1.87221	11189.712
56.3691	1.876092	11208.371
56.4692	1.87982	11225.901
56.5693	1.88236	11248.294
56.6694	1.88661	11265.222
56.7695	1.88984	11286.915
56.8696	1.892674	11307.66
56.9697	1.89757	11325.582
57.0698	1.90037	11346.843
57.1699	1.90344	11366.665
57.27002	1.90629	11383.958
57.3701	1.90975	11402.922
57.4702	1.91248	11421.423
57.5703	1.91593	11426.328
57.67041	1.91946	11445.75
57.7705	1.92348	11467.03
57.8706	1.92615	11485.697
57.9707	1.9295	11506.913
58.0708	1.93374	11527.026
58.1709	1.93673	11539.011
58.271	1.93995	11556.778
58.3711	1.94466	11558.304
58.4712	1.94689	11577.252
58.5713	1.95055	11595.298
58.6714	1.95441	11614.082
58.7715	1.95748	11634.221
58.8716	1.95971	11652.114
58.97168	1.96289	11671.064
59.0718	1.96698	11653.274
59.1719	1.97101	11674.581
59.272	1.97375	11692.645
59.37207	1.97648	11710.853
59.4722	1.97954	11730.704
59.5723	1.98299	11747.073
59.6724	1.98552	11765.061
59.7725	1.989612	11785.527
59.8726	1.99276	11805.557
59.9727	1.99623	11825.661
60.0728	2.00018	11846.795
60.1729	2.00336	11860.431
60.2729	2.007	11879.279
60.373	2.010107	11899.117
60.4731	2.01347	11917.484
60.5732	2.017194	11939.622
60.67334	2.02003	11959.411
60.7734	2.02303	11978.803
60.8735	2.026552	11998.456
60.9736	2.03019	12017.07
61.07373	2.03274	12035.803
61.1738	2.03713	12049.041
61.2739	2.04016	12065.7
61.374	2.04411	12084.297
61.4741	2.04691	12102.081
61.5742	2.04972	12124.495
61.6743	2.05356	12144.238
61.7744	2.05708	12164.536
61.8745	2.06129	12185.146
61.9746	2.06431	12183.082
62.0747	2.0685	12200.479
62.1748	2.07149	12216.392
62.2749	2.07507	12233.483
62.375	2.077177	12250.697
62.4751	2.0807	12265.985
62.5752	2.08361	12247.808
62.6753	2.08659	12262.229
62.7754	2.09052	12244.106
62.8755	2.095768	12118.497
62.9756	2.099	12131.365
63.0757	2.103302	12111.748
63.1758	2.10691	12127.785
63.2759	2.11011	12124.326
63.376	2.11315	12142.313
63.4761	2.11551	12157.646
63.5762	2.11846	12131.25
63.67627	2.12317	12151.208
63.7764	2.12588	12162.138
63.8765	2.12967	12178.788
63.9766	2.13239	12196.269
64.07666	2.13528	12212.145
64.1768	2.1392	12231.092
64.2769	2.14285	12146.249
64.377	2.14937	11784.468
64.4771	2.15391	11798.198
64.5771	2.158314	11742.668
64.6772	2.1606	11755.052
64.7773	2.1644	11770.052
64.8774	2.16664	11786.876
64.9775	2.16978	11801.869
65.0776	2.17238	11820.096
65.1777	2.17555	11839.396
65.2778	2.17856	11856.214
65.37793	2.18211	11875.154
65.478	2.18412	11893.815
65.5781	2.18704	11914.512
65.6782	2.190587	11914.833
65.77832	2.19316	11935.484
65.8784	2.19661	11953.321
65.9785	2.2	11904.095
66.0786	2.20436	11923.041
66.1787	2.207166	11941.284
66.2788	2.209729	11959.986
66.3789	2.21211	11977.629
66.479	2.21668	11996.227
66.5791	2.21928	11935.225
66.6792	2.22366	11934.496
66.7793	2.227488	11954.511
66.8794	2.22969	11972.096
66.9795	2.23387	11984.73
67.07959	2.23683	12004.81
67.1797	2.23888	12022.656
67.2798	2.242413	12040.768
67.3799	2.24606	12059.143
67.47998	2.248	12079.354
67.5801	2.25211	12095.909
67.6802	2.25425	12116.807
67.7803	2.25899	12136.345
67.8804	2.26117	12154.841
67.9805	2.264616	12174.131
68.0806	2.26714	12195.004
68.1807	2.27175	12210.772
68.2808	2.27378	12230.237
68.3809	2.27675	12249.701
68.481	2.27975	12269.198
68.5811	2.28318	12287.044
68.6812	2.28669	12304.27
68.78125	2.28938	12321.084
68.8813	2.29116	12343.306
68.9814	2.29599	12362.4
69.0815	2.2994	12381.852
69.1816	2.30362	12397.65
69.2817	2.307117	12329.321
69.3818	2.31065	12340.669
69.4819	2.31348	12358.882
69.582	2.31718	12377.227
69.6821	2.32072	12393.778
69.7822	2.32325	12412.573
69.8823	2.32721	12428.5
69.9824	2.32939	12445.841
70.08252	2.33324	12466.193
70.1826	2.33701	12488.084
70.2827	2.34043	12504.934
70.3828	2.3433	12524.328
70.48291	2.34612	12539.309
70.583	2.34981	12554.655
70.6831	2.35411	12571.212
70.7832	2.35712	12589.424
70.8833	2.36034	12607.408
70.9834	2.36263	12624.328
71.0835	2.36587	12642.43
71.1836	2.37061	12659.778
71.2837	2.37273	12678.114
71.3838	2.37646	12695.963
71.4839	2.37901	12714.067
71.584	2.38224	12731.93
71.6841	2.38552	12748.314