File: dublin_poster_plots/Tensile Tests - Quenched Samples 20180604/BLPX-M1-Q015-06_20180604/specimen.dat
MTS793|MPT|ENU|1|2|.|/|:|1|0|0|A

Data Acquisition						Time:	102.517	s	6/4/2018 3:22:02 PM
Time	MTS 4 Displacement 4	MTS 4 Force 4
s	mm	N
0.114746	-2.08616e-05	-32.7879
0.214844	0.00300407	-14.3184
0.314941	0.00579953	13.891
0.415039	0.0094384	37.3882
0.515137	0.0137895	61.4826
0.615234	0.0175476	84.4774
0.715332	0.0201792	106.8579
0.81543	0.0226647	130.071
0.915527	0.0262767	158.279
1.015625	0.0286311	184.533
1.11572	0.033024	207.976
1.21582	0.0353426	231.969
1.315918	0.0385582	255.3356
1.41602	0.0428021	278.912
1.51611	0.045836	303.826
1.61621	0.04927814	328.0773
1.71631	0.0521362	350.078
1.81641	0.0552952	376.629
1.9165	0.0593156	402.065
2.0166	0.0625551	427.015
2.1167	0.0655115	454.077
2.2168	0.0691265	477.002
2.31689	0.0707299	501.301
2.41699	0.075826	525.623
2.51709	0.0792593	549.594
2.61719	0.0823021	575.496
2.71729	0.08443	600.499
2.81738	0.0885159	627.647
2.91748	0.0913411	650.588
3.01758	0.0949085	676.7829
3.11768	0.0989646	702.3371
3.21777	0.102246	727.133
3.31787	0.104848	755.172
3.41797	0.109401	778.119
3.51807	0.111672	802.042
3.61816	0.114882	826.5282
3.71826	0.118941	850.155
3.81836	0.12176	874.209
3.918457	0.124753	900.292
4.01855	0.128323	924.546
4.11865	0.13158	947.833
4.21875	0.135449	972.335
4.31885	0.138637	997.0567
4.41895	0.14196	1023.152
4.519043	0.144544	1047.26
4.61914	0.1473546	1071.91
4.71924	0.151905	1097.319
4.81934	0.154689	1122.88
4.91943	0.157154	1147.05
5.01953	0.161088	1172.22
5.11963	0.164399	1198.59
5.21973	0.168437	1221.73
5.31982	0.17176	1244.97
5.41992	0.174484	1270.27
5.52002	0.178549	1296.19
5.62012	0.182331	1319.2
5.72021	0.184911	1344.45
5.82031	0.188342	1369.615
5.92041	0.192097	1395.07
6.02051	0.194395	1419.34
6.12061	0.197691	1444.56
6.2207	0.2016753	1468.73
6.3208	0.206149	1492
6.4209	0.207633	1516.51
6.521	0.211105	1542.16
6.62109	0.214091	1571.81
6.72119	0.219384	1596.52
6.82129	0.22184	1618.68
6.92139	0.224721	1642.96
7.02148	0.228262	1666.51
7.121582	0.231278	1689.9
7.22168	0.234938	1715.11
7.32178	0.239754	1738.18
7.421875	0.241929	1763.08
7.52197	0.245357	1789.75
7.62207	0.248858	1814.71
7.722168	0.252131	1839.87
7.82227	0.255126	1862.51
7.92236	0.258383	1887.67
8.02246	0.261575	1911.19
8.12256	0.264028	1934.62
8.22266	0.2684325	1962.27
8.32275	0.271633	1987.79
8.42285	0.2746284	2012.94
8.52295	0.278386	2038.48
8.62305	0.28235	2062.53
8.72314	0.285289	2087.728
8.82324	0.288722	2110.52
8.92334	0.292239	2132.61
9.02344	0.295371	2156.15
9.12354	0.29825	2181.02
9.22363	0.301081	2204.91
9.32373	0.305083	2229.62
9.42383	0.307927	2255.303
9.52393	0.312012	2281.41
9.62402	0.314724	2305.42
9.72412	0.318673	2331.04
9.82422	0.322527	2355.55
9.92432	0.326064	2380.92
10.0244	0.328293	2408.57
10.1245	0.332078	2435.96
10.2246	0.336602	2458.08
10.3247	0.339416	2480.61
10.4248	0.343335	2506.48
10.5249	0.346774	2532.959
10.625	0.350776	2557.42
10.7251	0.353771	2585.84
10.8252	0.358126	2619.83
10.9253	0.365669	2665.32
11.0254	0.368941	2691.78
11.1255	0.371516	2715.92
11.2256	0.374261	2737.53
11.3257	0.378472	2761.81
11.4258	0.3821224	2784.3
11.5259	0.3844589	2809.34
11.626	0.387937	2830.98
11.7261	0.390548	2854.53
11.8262	0.394255	2877.4
11.92627	0.3979	2900.63
12.0264	0.400725	2924.08
12.1265	0.404951	2946.92
12.2266	0.406206	2970.07
12.32666	0.410491	2993.69
12.4268	0.412869	3015.56
12.5269	0.4165858	3040.44
12.627	0.420219	3063.57
12.7271	0.424007	3087.3
12.8271	0.427389	3110.69
12.9272	0.429329	3131.96
13.0273	0.432941	3155.04
13.1274	0.436077	3177.626
13.2275	0.43956	3201.82
13.3276	0.442788	3227
13.4277	0.446478	3250
13.5278	0.448805	3272.91
13.62793	0.452045	3296.874
13.728	0.454971	3318.38
13.8281	0.458404	3342.58
13.9282	0.46193	3365.18
14.02832	0.464576	3387.51
14.1284	0.468698	3412.3
14.2285	0.471768	3437.58
14.3286	0.474334	3461.81
14.4287	0.479957	3485.519
14.5288	0.480998	3507.62
14.6289	0.484946	3531.93
14.729	0.488639	3552.89
14.8291	0.491184	3577.408
14.9292	0.495633	3600.37
15.0293	0.497732	3626.28
15.1294	0.50227	3647.86
15.2295	0.505784	3670.16
15.32959	0.507829	3693.01
15.4297	0.512493	3718.02
15.5298	0.515327	3742.3
15.6299	0.517684	3767.47
15.72998	0.522047	3790.88
15.8301	0.5251497	3813.61
15.9302	0.527707	3837.02
16.0303	0.531283	3861.42
16.1304	0.535479	3885.73
16.2305	0.538093	3909.81
16.3306	0.54149	3931.35
16.4307	0.543907	3954.8
16.5308	0.548267	3980.46
16.6309	0.55235	4005.16
16.731	0.554898	4028.44
16.8311	0.558335	4052.8
16.9312	0.56138	4072.99
17.03125	0.564501	4099.94
17.1313	0.568047	4125.37
17.2314	0.571239	4145.82
17.3315	0.5743891	4169.32
17.4316	0.578448	4192.458
17.5317	0.58077	4217.001
17.6318	0.5859673	4240.92
17.7319	0.588363	4264.29
17.832	0.591987	4287.66
17.9321	0.594592	4309.68
18.0322	0.598699	4335.01
18.1323	0.602448	4358.8
18.2324	0.604805	4380.37
18.33252	0.608724	4407.166
18.4326	0.61194	4431.39
18.5327	0.615084	4454.79
18.6328	0.618398	4477.61
18.73291	0.622782	4501.27
18.833	0.624982	4524.83
18.9331	0.628787	4549.71
19.0332	0.632206	4574.23
19.1333	0.635019	4594.46
19.2334	0.638106	4620.75
19.3335	0.642118	4644.47
19.4336	0.6441474	4667.17
19.5337	0.648475	4689.91
19.6338	0.6526947	4711.24
19.7339	0.655788	4734.84
19.834	0.657979	4760.71
19.9341	0.662121	4784.46
20.03418	0.665489	4810.05
20.1343	0.669092	4832.561
20.2344	0.671217	4857.28
20.3345	0.675493	4880.7
20.43457	0.677505	4904.97
20.5347	0.682911	4927
20.6348	0.684714	4947.35
20.7349	0.688422	4970.54
20.835	0.693512	5007.39
20.9351	0.6965369	5029.98
21.0352	0.699079	5049.53
21.1353	0.702661	5070.63
21.2354	0.706649	5094.34
21.3354	0.708777	5119.67
21.4355	0.711104	5135.84
21.5356	0.714937	5157.91
21.6357	0.717941	5184.03
21.73584	0.720811	5207.44
21.8359	0.725773	5231.78
21.936	0.728479	5257.76
22.0361	0.732809	5281.15
22.13623	0.736132	5301.51
22.2363	0.738984	5325.54
22.3364	0.742069	5346.85
22.4365	0.745532	5370.43
22.5366	0.749627	5393.53
22.6367	0.752074	5417.97
22.7368	0.75531	5441.91
22.8369	0.759313	5464.33
22.937	0.762671	5489.64
23.0371	0.765562	5512.08
23.1372	0.768921	5535.3
23.2373	0.7719785	5555.95
23.3374	0.775787	5580.02
23.4375	0.778878	5604.17
23.5376	0.782043	5624.62
23.6377	0.785008	5646.97
23.7378	0.788936	5671.35
23.8379	0.792101	5696.78
23.938	0.795966	5719.07
24.0381	0.798199	5741.12
24.1382	0.802159	5764.74
24.2383	0.804892	5788.9
24.3384	0.809607	5813.4
24.4385	0.811923	5833.4
24.5386	0.816435	5856.61
24.6387	0.819066	5880.26
24.73877	0.822884	5903.876
24.8389	0.82528	5925.375
24.939	0.828138	5952.45
25.0391	0.832865	5973.42
25.13916	0.835216	5994.89
25.2393	0.838548	6020.48
25.3394	0.842446	6043.91
25.4395	0.846606	6066.77
25.5396	0.848845	6091.05
25.6396	0.852543	6114.13
25.7397	0.8554399	6135.37
25.8398	0.859082	6159.97
25.9399	0.861859	6182.2
26.04	0.865567	6207
26.1401	0.869125	6229.92
26.2402	0.87305	6254.01
26.3403	0.876164	6278.28
26.44043	0.879359	6299.83
26.5405	0.882888	6325.87
26.6406	0.886381	6350.53
26.7407	0.889179	6372.22
26.84082	0.892749	6394.03
26.9409	0.897083	6415.85
27.041	0.899434	6439.17
27.1411	0.902921	6462.87
27.2412	0.905815	6484.38
27.3413	0.909898	6508.53
27.4414	0.913918	6532.84
27.5415	0.916645	6556
27.6416	0.920215	6578.17
27.7417	0.923231	6605.97
27.8418	0.927305	6629.97
27.9419	0.930402	6653.41
28.042	0.933865	6676.28
28.14209	0.93663	6696.08
28.2422	0.94054	6718.15
28.3423	0.943205	6739.22
28.4424	0.946343	6762.29
28.54248	0.950009	6783.57
28.6426	0.953057	6808.03
28.7427	0.956237	6829.14
28.8428	0.959712	6852.86
28.9429	0.963494	6875.03
29.043	0.967792	6898.08
29.1431	0.969651	6918.84
29.2432	0.973767	6943.31
29.3433	0.97518	6964.47
29.4434	0.979504	6985.37
29.5435	0.98249	7010.84
29.6436	0.98657	7034.91
29.7437	0.988838	7056.4
29.84375	0.993115	7081.4
29.9438	0.996685	7105.06
30.0439	1.00012	7128.11
30.144	1.00255	7149.13
30.2441	1.00568	7171.92
30.3442	1.01039	7194.16
30.4443	1.01226	7218.17
30.5444	1.01634	7241.24
30.6445	1.01955	7265.55
30.7446	1.02286	7286.9
30.8447	1.02631	7309.65
30.9448	1.02891	7330.79
31.0449	1.03236	7354.53
31.14502	1.036489	7377.998
31.2451	1.03923	7399.96
31.3452	1.04291	7422.05
31.4453	1.04558	7447.55
31.54541	1.04999	7470.832
31.6455	1.05281	7494.89
31.7456	1.05643	7515.519
31.8457	1.06042	7540.16
31.9458	1.06243	7564.63
32.0459	1.06615	7588.68
32.146	1.06972	7610.8
32.2461	1.0725	7631.106
32.3462	1.07597	7653.66
32.4463	1.07907	7676.61
32.5464	1.0849	7696.31
32.6465	1.08613	7718.43
32.7466	1.088658	7742.76
32.84668	1.09319	7765.6
32.9468	1.09605	7789.37
33.0469	1.09941	7810.54
33.147	1.10303	7835.81
33.24707	1.10582	7858.47
33.3472	1.10923	7879.082
33.4473	1.11299	7901.67
33.5474	1.11666	7924.67
33.6475	1.11857	7946.51
33.7476	1.12304	7970.66
33.8477	1.12571	7993.12
33.9478	1.13017	8014.67
34.0479	1.13336	8035.25
34.1479	1.13625	8059.27
34.248	1.13935	8081.57
34.3481	1.14321	8103.39
34.4482	1.14661	8128.31
34.54834	1.14901	8149.42
34.6484	1.15371	8173.45
34.7485	1.15573	8192.25
34.8486	1.15838	8217.09
34.94873	1.16228	8239.45
35.0488	1.16671	8263.45
35.1489	1.16787	8286.041
35.249	1.17334	8308.07
35.3491	1.17637	8332.34
35.4492	1.17998	8361.69
35.5493	1.18413	8382.042
35.6494	1.18735	8403.3
35.7495	1.19133	8425.76
35.8496	1.19335	8446.07
35.9497	1.1953	8467.91
36.0498	1.19974	8490.45
36.1499	1.20386	8511.96
36.25	1.20684	8535.165
36.3501	1.209715	8557.81
36.4502	1.21317	8579.44
36.5503	1.21565	8599.25
36.6504	1.220566	8622.22
36.7505	1.22261	8645.37
36.8506	1.22661	8665.91
36.9507	1.22972	8692.93
37.0508	1.23394	8714.62
37.1509	1.23622	8737.29
37.251	1.239413	8757.28
37.3511	1.24304	8780.09
37.4512	1.24645	8804.66
37.55127	1.25023	8825.09
37.6514	1.25251	8847.04
37.7515	1.25707	8871.876
37.8516	1.26044	8894.873
37.95166	1.26435	8915.94
38.0518	1.265797	8937.11
38.1519	1.27099	8959.76
38.252	1.27231	8982
38.3521	1.27698	9002.7
38.4521	1.27949	9024.57
38.5522	1.28343	9049.97
38.6523	1.286155	9072.36
38.7524	1.28986	9094.666
38.8525	1.29301	9116.98
38.9526	1.29763	9139.21
39.0527	1.30052	9162.57
39.1528	1.30335	9183.958
39.25293	1.30724	9207.4
39.353	1.31117	9228.35
39.4531	1.31304	9250.3
39.5532	1.31585	9274.16
39.65332	1.32011	9298.084
39.7534	1.32358	9317.77
39.8535	1.3268	9339.18
39.9536	1.33038	9363.92
40.0537	1.33466	9388.12
40.1538	1.33645	9409.72
40.2539	1.34057	9432.457
40.354	1.3431	9451.89
40.4541	1.34722	9474.248
40.5542	1.35057	9497.63
40.6543	1.35362	9520.07
40.7544	1.35604	9543.05
40.8545	1.35958	9564.92
40.95459	1.3633	9587.13
41.0547	1.36707	9608.81
41.1548	1.369068	9631.793
41.2549	1.37331	9655.67
41.35498	1.37731	9675.88
41.4551	1.380679	9697.49
41.5552	1.383	9719.69
41.6553	1.38638	9740.47
41.7554	1.39	9763.43
41.8555	1.39315	9786.74
41.9556	1.3972	9809.46
42.0557	1.40007	9830.18
42.1558	1.402995	9852.47
42.2559	1.40654	9873.78
42.356	1.40904	9895.73
42.4561	1.41276	9917.55
42.5562	1.41666	9942.68
42.65625	1.41949	9964.68
42.7563	1.42317	9987.14
42.8564	1.42744	10008.771
42.9565	1.43017	10031.545
43.0566	1.4347	10051.871
43.1567	1.43665	10072.904
43.2568	1.44062	10092.456
43.3569	1.44312	10115.077
43.457	1.44563	10136.495
43.5571	1.44914	10159.933
43.6572	1.45366	10181.212
43.7573	1.45671	10205.134
43.8574	1.46023	10229.017
43.95752	1.463747	10250.817
44.0576	1.46641	10272.519
44.1577	1.46942	10293.548
44.2578	1.473	10315.6
44.35791	1.47552	10336.904
44.458	1.48039	10357.768
44.5581	1.48339	10380.15
44.6582	1.4863	10403.419
44.7583	1.48963	10426.218
44.8584	1.49373	10449.391
44.9585	1.49671	10470.737
45.0586	1.500228	10493.152
45.1587	1.50368	10513.697
45.2588	1.50703	10534.352
45.3589	1.50981	10556.898
45.459	1.51339	10580.193
45.5591	1.51632	10602.018
45.65918	1.52003	10621.439
45.7593	1.52243	10647.106
45.8594	1.52681	10669.042
45.9595	1.53138	10692.283
46.05957	1.53282	10712.86
46.1597	1.53652	10736.189
46.2598	1.5416	10757.315
46.3599	1.54365	10778.216
46.46	1.5466	10795.897
46.5601	1.54939	10820.826
46.6602	1.55383	10844.515
46.7603	1.55738	10864.341
46.8604	1.5617	10887.154
46.9604	1.56313	10906.221
47.0605	1.56647	10929.257
47.1606	1.57022	10952.023
47.2607	1.57276	10977.262
47.36084	1.57633	10997.733
47.4609	1.58017	11019.992
47.561	1.58379	11042.103
47.6611	1.58719	11065.021
47.76123	1.59173	11083.887
47.8613	1.59367	11104.935
47.9614	1.59591	11122.957
48.0615	1.60088	11146.043
48.1616	1.60389	11170.036
48.2617	1.606667	11190.017
48.3618	1.61013	11211.759
48.4619	1.61318	11234.465
48.562	1.61702	11257.618
48.6621	1.61996	11280.277
48.7622	1.62357	11302.201
48.8623	1.62792	11321.373
48.9624	1.6304	11343.502
49.0625	1.63328	11366.354
49.1626	1.63656	11389.479
49.2627	1.63992	11411.969
49.3628	1.643768	11429.964
49.4629	1.6463	11453.591
49.563	1.64941	11473.957
49.6631	1.65353	11499.95
49.7632	1.65654	11522.175
49.8633	1.65894	11543.742
49.9634	1.66312	11562.472
50.0635	1.66651	11587.413
50.1636	1.66997	11608.721
50.2637	1.673758	11631.487
50.36377	1.67725	11652.044
50.4639	1.68013	11673.901
50.564	1.6836	11697.355
50.6641	1.68701	11718.562
50.76416	1.690349	11740.347
50.8643	1.69421	11760.773
50.9644	1.69624	11781.352
51.0645	1.70038	11804.188
51.1646	1.70343	11825.662
51.2646	1.70744	11847.845
51.3647	1.71043	11870.191
51.4648	1.71386	11891.491
51.5649	1.71533	11912.744
51.665	1.72036	11934.269
51.7651	1.72298	11957.17
51.8652	1.72665	11977.905
51.9653	1.72967	11998.507
52.06543	1.73341	12021.202
52.1655	1.73567	12041.663
52.2656	1.73965	12063.063
52.3657	1.74397	12084.192
52.46582	1.74717	12108.338
52.5659	1.7504	12130.651
52.666	1.75393	12150.027
52.7661	1.756528	12172.454
52.8662	1.760152	12192.235
52.9663	1.76262	12213.303
53.0664	1.76716	12232.699
53.1665	1.76984	12257.768
53.2666	1.77375	12281.783
53.3667	1.77709	12304.687
53.4668	1.7792	12324.753
53.5669	1.78351	12345.298
53.667	1.78646	12366.95
53.76709	1.79093	12388.467
53.8672	1.79366	12408.814
53.9673	1.79712	12432.466
54.0674	1.7993	12451.518
54.16748	1.8037	12473.7
54.2676	1.80685	12495.45
54.3677	1.8095	12516.225
54.4678	1.81385	12538.11
54.5679	1.81634	12558.298
54.668	1.81972	12581.056
54.7681	1.82278	12603.212
54.8682	1.82621	12624.001
54.9683	1.83021	12645.771
55.0684	1.83359	12665.875
55.1685	1.8356	12689.31
55.2686	1.83963	12708.915
55.3687	1.84254	12730.972
55.46875	1.84667	12752.823
55.5688	1.84999	12773.801
55.6689	1.853627	12797.235
55.769	1.85737	12819.7
55.8691	1.85939	12840.911
55.9692	1.86408	12861.913
56.0693	1.86691	12884.615
56.1694	1.87025	12904.075
56.2695	1.87388	12926.23
56.3696	1.87703	12951.14
56.4697	1.87923	12970.616
56.5698	1.884678	12994.254
56.6699	1.88693	13014.7
56.77002	1.89009	13036.173
56.8701	1.89361	13056.181
56.9702	1.896888	13078.815
57.0703	1.90042	13099.539
57.17041	1.90306	13121.588
57.2705	1.907	13142.265
57.3706	1.910612	13164.521
57.4707	1.91345	13184.959
57.5708	1.91687	13205.731
57.6709	1.91953	13227.967
57.771	1.92351	13251.01
57.8711	1.92723	13271.309
57.9712	1.93041	13292.3
58.0713	1.932469	13313.867
58.1714	1.93615	13335.798
58.2715	1.93996	13358.099
58.3716	1.94387	13378.587
58.47168	1.94681	13401.443
58.5718	1.95014	13422.877
58.6719	1.95384	13444.928
58.772	1.95721	13466.277
58.87207	1.96032	13486.526
58.9722	1.96457	13507.271
59.0723	1.96636	13527.469
59.1724	1.96984	13549.056
59.2725	1.97404	13569.108
59.3726	1.97672	13589.882
59.4727	1.98067	13611.512
59.5728	1.98441	13632.471
59.6729	1.98689	13654.546
59.7729	1.99068	13678.121
59.873	1.99342	13698.163
59.9731	1.99709	13720.67
60.0732	2.00069	13742.668
60.17334	2.00427	13766.312
60.2734	2.00751	13787.16
60.3735	2.01108	13806.981
60.4736	2.01509	13826.684
60.57373	2.0168	13846.133
60.6738	2.01955	13867.173
60.7739	2.02394	13891.544
60.874	2.02672	13911.286
60.9741	2.030319	13932.566
61.0742	2.03314	13952.297
61.1743	2.03699	13973.087
61.2744	2.04046	13995.432
61.3745	2.04306	14016.871
61.4746	2.04785	14038.962
61.5747	2.05041	14063.445
61.6748	2.05422	14083.391
61.7749	2.05761	14105.719
61.875	2.06107	14126.424
61.9751	2.06393	14144.111
62.0752	2.067	14164.341
62.1753	2.07049	14183.98
62.2754	2.0735	14206.101
62.3755	2.07754	14226.033
62.4756	2.08038	14247.503
62.5757	2.08306	14268.235
62.6758	2.08785	14290.576
62.7759	2.09068	14312.463
62.876	2.09488	14335.295
62.9761	2.09799	14358.723
63.0762	2.10074	14379.524
63.17627	2.10341	14399.606
63.2764	2.10765	14421.284
63.3765	2.11043	14441.152
63.4766	2.11432	14461.58
63.57666	2.11701	14481.527
63.6768	2.12017	14503.457
63.7769	2.12319	14521.717
63.877	2.12705	14543.159
63.9771	2.12992	14563.951
64.0771	2.13424	14587.242
64.1772	2.137342	14608.572
64.2773	2.14078	14629.226
64.3774	2.14285	14648.64
64.4775	2.14657	14670.813
64.5776	2.15088	14689.641
64.6777	2.15379	14711.501
64.7778	2.15774	14734.609
64.87793	2.160409	14757.752
64.978	2.16402	14778.234
65.0781	2.16654	14797.638
65.1782	2.17015	14819.396
65.27832	2.17318	14839.688
65.3784	2.17628	14859.37
65.4785	2.18048	14880.751
65.5786	2.18517	14900.733
65.6787	2.18543	14919.609
65.7788	2.18976	14941.102
65.8789	2.19358	14961.858
65.979	2.19709	14985.479
66.0791	2.20006	15008.088
66.1792	2.20456	15028.881
66.2793	2.20716	15048.039
66.3794	2.210331	15069.788
66.4795	2.21342	15091.661
66.57959	2.21736	15109.552
66.6797	2.22019	15131.411
66.7798	2.2238	15153.903
66.8799	2.22657	15175.933
66.97998	2.22982	15195.347
67.0801	2.23297	15213.508
67.1802	2.23701	15234.271
67.2803	2.24073	15255.259
67.3804	2.24494	15275.724
67.4805	2.24685	15295.672
67.5806	2.25005	15319.874
67.6807	2.25433	15342.279
67.7808	2.25747	15362.577
67.8809	2.26061	15382.158
67.981	2.263689	15404.821
68.0811	2.26545	15422.865
68.1812	2.27011	15445.022
68.28125	2.27347	15469.209
68.3813	2.27733	15488.242
68.4814	2.27987	15510.84
68.5815	2.28483	15533.407
68.6816	2.28679	15552.332
68.7817	2.29134	15574.269
68.8818	2.29427	15593.815
68.9819	2.29746	15612.988
69.082	2.3004	15632.041
69.1821	2.30326	15653.839
69.2822	2.30714	15675.614
69.3823	2.31023	15697.912
69.4824	2.31414	15717.971
69.58252	2.3172	15738.415
69.6826	2.31984	15761.354
69.7827	2.32371	15783.317
69.8828	2.32713	15803.44
69.98291	2.33004	15823.017
70.083	2.33589	15843.417
70.1831	2.33683	15864.294
70.2832	2.34213	15884.355
70.3833	2.343446	15906.049
70.4834	2.34723	15925.757
70.5835	2.35077	15945.691
70.6836	2.353272	15966.208
70.7837	2.35721	15988.219
70.8838	2.36096	16010.229
70.9839	2.36476	16030.251
71.084	2.36751	16052.44
71.1841	2.37069	16072.704
71.28418	2.37449	16093.516
71.3843	2.37743	16115.021
71.4844	2.37956	16136.206
71.5845	2.38432	16157.259
71.68457	2.38726	16177.963
71.7847	2.3913	16198.803
71.8848	2.39431	16218.458
71.9849	2.39687	16241.153
72.085	2.40093	16261.459
72.1851	2.40519	16282.246
72.2852	2.40752	16301.224
72.3853	2.4107	16322.062
72.4854	2.41474	16343.254
72.5854	2.41727	16363.533
72.6855	2.42106	16384.592
72.7856	2.42396	16405.246
72.8857	2.42807	16428.068
72.98584	2.43036	16448.74
73.0859	2.4356	16468.354
73.186	2.43782	16488.174
73.2861	2.43936	16508.932
73.38623	2.44514	16529.744
73.4863	2.44734	16552.145
73.5864	2.45071	16570.369
73.6865	2.45423	16593.76
73.7866	2.45866	16615.063
73.8867	2.45965	16631.65
73.9868	2.46427	16653.799
74.0869	2.46701	16673.822
74.187	2.47146	16692.256
74.2871	2.47442	16713.482
74.3872	2.47701	16733.781
74.4873	2.48093	16756.381
74.5874	2.48398	16773.15
74.6875	2.48736	16795.24
74.7876	2.49078	16818.953
74.8877	2.49506	16839.754
74.9878	2.49806	16858.623
75.0879	2.50077	16879.477
75.188	2.50511	16899.629
75.2881	2.50746	16917.211
75.3882	2.51037	16938.691
75.4883	2.51477	16962.309
75.5884	2.51731	16982.346
75.6885	2.52087	17001.025
75.7886	2.52463	17022.934
75.8887	2.52673	17043.797
75.98877	2.53045	17064.992
76.0889	2.53382	17084.408
76.189	2.53882	17106.336
76.2891	2.54106	17126.711
76.38916	2.54433	17145.287
76.4893	2.54753	17165.291
76.5894	2.55057	17185.5
76.6895	2.55432	17205.939
76.7896	2.55663	17226.305
76.8896	2.56063	17245.537
76.9897	2.56321	17266.541
77.0898	2.56685	17285.904
77.1899	2.57105	17306.584
77.29	2.57421	17326.377
77.3901	2.57724	17345.9
77.4902	2.58029	17366.873
77.5903	2.58411	17386.773
77.69043	2.58833	17410.293
77.7905	2.59057	17429.404
77.8906	2.59301	17448.455
77.9907	2.59748	17470.545
78.09082	2.60147	17490.559
78.1909	2.60437	17513.518
78.291	2.60823	17533.867
78.3911	2.61129	17553.576
78.4912	2.61492	17573.418
78.5913	2.61742	17594.977
78.6914	2.621594	17614.469
78.7915	2.62399	17635.48
78.8916	2.62754	17647.338
78.9917	2.63045	17668.213
79.0918	2.63439	17693.947
79.1919	2.63811	17715.227
79.292	2.64064	17737.137
79.39209	2.64415	17757.422
79.4922	2.64783	17777.881
79.5923	2.65045	17799.789
79.6924	2.65376	17817.918
79.79248	2.65816	17838.461
79.8926	2.6614	17858.506
79.9927	2.66544	17878.299
80.0928	2.66835	17896.605
80.1929	2.67101	17916.256
80.293	2.67435	17940.348
80.3931	2.67749	17961.883
80.4932	2.681139	17980.973
80.5933	2.68403	17999.422
80.6934	2.68706	18017.986
80.7935	2.69005	18040.527
80.8936	2.69375	18061.24
80.9937	2.69733	18080.752
81.09375	2.699858	18101.365
81.1938	2.7041	18120.646
81.2939	2.70697	18140.656
81.394	2.71036	18161.141
81.4941	2.7137	18183.332
81.5942	2.7175	18202.904
81.6943	2.72022	18224.648
81.7944	2.7243	18246.316
81.8945	2.72793	18267.211
81.9946	2.73111	18288.391
82.0947	2.73476	18309.248
82.1948	2.73898	18328.818
82.2949	2.7411	18348.232
82.39502	2.744451	18366.936
82.4951	2.74726	18388.639
82.5952	2.75017	18409.559
82.6953	2.75458	18427.262
82.79541	2.75743	18445.078
82.8955	2.76103	18465.275
82.9956	2.76413	18485.367
83.0957	2.7685	18506.385
83.1958	2.77066	18527.82
83.2959	2.7752	18547.082
83.396	2.776608	18568.256
83.4961	2.78173	18587.619
83.5962	2.78371	18610.688
83.6963	2.78741	18630.32
83.7964	2.79131	18652.141
83.8965	2.79531	18671.145
83.9966	2.798897	18690.961
84.09668	2.80117	18710.838
84.1968	2.80427	18730.344
84.2969	2.80775	18750.842
84.397	2.81131	18771.025
84.49707	2.81421	18789.391
84.5972	2.816093	18808.703
84.6973	2.82038	18829.094
84.7974	2.82481	18847.209
84.8975	2.82787	18866.6
84.9976	2.83096	18889.855
85.0977	2.83434	18912.953
85.1978	2.83698	18929.879
85.2979	2.84064	18951.217
85.3979	2.84431	18971.949
85.498	2.84843	18992.965
85.5981	2.8504	19010.734
85.6982	2.85471	19033.629
85.79834	2.85854	19051.367
85.8984	2.86187	19071.348
85.9985	2.86386	19090.734
86.0986	2.86811	19110.514
86.19873	2.87031	19130.162
86.2988	2.87365	19148.613
86.3989	2.87765	19169.252
86.499	2.88011	19189.514
86.5991	2.88421	19208.211
86.6992	2.887711	19228.834
86.7993	2.89039	19250.16
86.8994	2.89421	19270.322
86.9995	2.89769	19290.938
87.0996	2.90145	19310.07
87.1997	2.90536	19330.154
87.2998	2.90731	19346.383
87.3999	2.91084	19367.279
87.5	2.915266	19389.234
87.6001	2.91766	19408.434
87.7002	2.92042	19428.289
87.8003	2.924469	19449.82
87.9004	2.92777	19470.281
88.0005	2.931	19490.225
88.1006	2.93484	19512.094
88.2007	2.93835	19530.154
88.3008	2.94242	19548.205
88.4009	2.94348	19570.215
88.501	2.94722	19592.51
88.6011	2.95108	19613.307
88.7012	2.95466	19630.982
88.80127	2.95714	19649.697
88.9014	2.9614	19670.064
89.0015	2.964741	19689.213
89.1016	2.96768	19710.264
89.20166	2.971071	19728.361
89.3018	2.97427	19747.189
89.4019	2.97765	19768.313
89.502	2.98154	19788.596
89.6021	2.98481	19808.342
89.7021	2.987	19827.107
89.8022	2.99194	19848.299
89.9023	2.99553	19869.66
90.0024	2.99772	19888.057
90.1025	3.0008	19906.582
90.2026	3.00518	19925.213
90.3027	3.00747	19940.75
90.4028	3.01186	19961.367
90.50293	3.01427	19982.645
90.603	3.01777	20004.789
90.7031	3.02116	20025.369
90.8032	3.023684	20043.637
90.90332	3.0276	20062.754
91.0034	3.03092	20082.451
91.1035	3.03536	20102.439
91.2036	3.03745	20122.943
91.3037	3.04219	20144.371
91.4038	3.04444	20165.279
91.5039	3.04755	20182.756
91.604	3.05098	20202.809
91.7041	3.05451	20221.762
91.8042	3.05699	20242.727
91.9043	3.06031	20261.387
92.0044	3.0638	20280.051
92.1045	3.06805	20300.262
92.20459	3.0711	20319.121
92.3047	3.07318	20339.504
92.4048	3.0784	20359.848
92.5049	3.08138	20380.295
92.60498	3.08408	20395.211
92.7051	3.08799	20418.178
92.8052	3.09154	20439.174
92.9053	3.09309	20460.625
93.0054	3.09848	20479.477
93.1055	3.10138	20499.797
93.2056	3.10443	20514.686
93.3057	3.10732	20531.314
93.4058	3.11151	20553.555
93.5059	3.11322	20572.73
93.606	3.11706	20592.113
93.7061	3.11986	20611.1
93.8062	3.12367	20630.092
93.90625	3.12683	20650.994
94.0063	3.13062	20671.701
94.1064	3.134805	20692.258
94.2065	3.13854	20712.117
94.3066	3.14171	20730.789
94.4067	3.14388	20750.285
94.5068	3.14789	20769.896
94.6069	3.15068	20788.254
94.707	3.15436	20807.217
94.8071	3.15712	20826.09
94.9072	3.16087	20846.484
95.0073	3.16368	20866.125
95.1074	3.16832	20884.822
95.20752	3.17126	20902.572
95.3076	3.17416	20922.631
95.4077	3.17803	20944.07
95.5078	3.18126	20964.18
95.60791	3.18451	20982.938
95.708	3.18798	21004.205
95.8081	3.19122	21021.51
95.9082	3.19541	21040.619
96.0083	3.19715	21060.254
96.1084	3.20126	21077.973
96.2085	3.20444	21095.203
96.3086	3.20758	21114.367
96.4087	3.21076	21135.775
96.5088	3.21424	21155.992
96.6089	3.21697	21172.504
96.709	3.22096	21196.709
96.8091	3.22432	21219.961
96.90918	3.22833	21240.072
97.0093	3.231266	21259.994
97.1094	3.23445	21276.492
97.2095	3.23776	21294.506
97.30957	3.24039	21313.434
97.4097	3.24638	21331.043
97.5098	3.247592	21348.531
97.6099	3.25102	21369.889
97.71	3.25476	21389.813
97.8101	3.25761	21409.783
97.9102	3.26149	21428.588
98.0103	3.264159	21449.361
98.1104	3.26722	21466.004
98.2104	3.27093	21487.195
98.3105	3.27521	21504.967
98.4106	3.27811	21522.994
98.5107	3.28059	21541.613
98.61084	3.28441	21563.264
98.7109	3.28713	21581.391
98.811	3.2915	21601.641
98.9111	3.29467	21621.115
99.01123	3.29783	21639.906
99.1113	3.30102	21658.334
99.2114	3.30493	21679.873
99.3115	3.30683	21698.469
99.4116	3.31033	21717.865
99.5117	3.31489	21736.969
99.6118	3.31805	21754.729
99.7119	3.32148	21774.619
99.812	3.32522	21792
99.9121	3.32753	21808.855
100.012	3.33159	21827.602
100.1123	3.33374	21847.426
100.2124	3.33756	21864.896
100.3125	3.34047	21883.215
100.4126	3.34376	21902.414
100.5127	3.34769	21922.035
100.613	3.35076	21942.785
100.713	3.35479	21961.275
100.813	3.3575	21980.559
100.913	3.36166	21999.441
101.013	3.36417	22017.412
101.113	3.36817	22034.584
101.213	3.37108	22054.85
101.313	3.37432	22072.043
101.414	3.37822	22092.867
101.514	3.38135	22108.754
101.614	3.38518	22129.207
101.714	3.38702	22147.842
101.814	3.391078	22169.221
101.914	3.3954	22188.834
102.014	3.39815	22207.291
102.114	3.40061	22223.145
102.214	3.40402	22241.531
102.314	3.40799	22259.055
102.415	3.41077	22279.143
102.515	3.41488	22298.438

Data Acquisition						Time:	106.102	s	6/4/2018 3:22:06 PM
Time	MTS 4 Displacement 4	MTS 4 Force 4
s	mm	N
102.615	3.41855	22318.072
102.715	3.4217	22337.928
102.815	3.42499	22357.838
102.915	3.428659	22376.918
103.015	3.4309	22393.805
103.115	3.43399	22413.451
103.215	3.43784	22429.957
103.315	3.44067	22449.328
103.416	3.44528	22463.719
103.516	3.44691	22483.139
103.616	3.45133	22499.592
103.716	3.45425	22519.025
103.816	3.45754	22537.713
103.916	3.46137	22555.711
104.016	3.46513	22571.912
104.116	3.46752	22589.393
104.216	3.47161	22610.154
104.316	3.47381	22624.887
104.4165	3.47846	22643.389
104.5166	3.48167	22661.104
104.6167	3.48492	22677.742
104.7168	3.48793	22695.08
104.817	3.49184	22712.244
104.917	3.49519	22730.193
105.017	3.49789	22746.654
105.117	3.50137	22766.375
105.217	3.50544	22785.568
105.317	3.50844	22801.281
105.417	3.51156	22818.162
105.518	3.51478	22833.574
105.618	3.51772	22848.85
105.718	3.52175	22868.26
105.818	3.52522	22882.707
105.918	3.52924	22897.275
106.018	3.53231	22848.697