File: dublin_poster_plots/Tensile Tests - Quenched Samples 20180604/BLPX-M1-Q030-04_20180604/specimen.dat
MTS793|MPT|ENU|1|2|.|/|:|1|0|0|A

Data Acquisition						Time:	82.0386	s	6/4/2018 3:50:49 PM
Time	MTS 4 Displacement 4	MTS 4 Force 4
s	mm	N
0.11377	-0.0013262	-45.9288
0.213867	0.00153482	-28.519
0.313965	0.00602603	-3.48659
0.4140625	0.00986755	24.7384
0.51416	0.0126064	45.354
0.614258	0.0157028	65.11277
0.714355	0.0195891	87.7784
0.814453	0.021705	108.988
0.914551	0.0250041	133.763
1.01465	0.0284523	157.314
1.11475	0.0320941	179.295
1.21484	0.0345647	202.711
1.31494	0.0394642	224.668
1.41504	0.0416487	247.839
1.51514	0.044629	270.474
1.61523	0.047785	294.127
1.715332	0.0517249	317.907
1.81543	0.054884	343.365
1.91553	0.057134	365.489
2.015625	0.0608742	389.723
2.11572	0.064221	412.486
2.21582	0.0674635	435.623
2.315918	0.0706285	457.8446
2.41602	0.07352829	481.5871
2.51611	0.0780404	503.68
2.61621	0.0809997	528.608
2.71631	0.0848949	553.846
2.81641	0.0883043	576.5
2.9165	0.0911325	599.1709
3.0166	0.0940472	623.041
3.1167	0.0974685	645.594
3.2168	0.0995487	668.4975
3.31689	0.103587	691.325
3.41699	0.107566	719.073
3.51709	0.110933	743.434
3.61719	0.114268	765.015
3.71729	0.116131	789.115
3.81738	0.1199007	812.612
3.91748	0.123969	835.05
4.01758	0.126916	861.546
4.11768	0.130442	884.474
4.21777	0.1342	906.94
4.31787	0.137606	931.38
4.41797	0.140402	956.041
4.51807	0.143987	977.4624
4.61816	0.149024	999.665
4.71826	0.150019	1020.59
4.81836	0.154203	1045.62
4.918457	0.157085	1068.73
5.01855	0.160849	1094.06
5.11865	0.163627	1115.6
5.21875	0.168064	1139.33
5.31885	0.170508	1162.05
5.41895	0.174084	1186.96
5.519043	0.1768887	1208.39
5.61914	0.180408	1231.44
5.71924	0.184	1254.23
5.81934	0.187385	1276.22
5.91943	0.1898855	1300.9
6.01953	0.19401	1325.14
6.11963	0.197896	1347.93
6.21973	0.201502	1371.36
6.31982	0.204104	1393.51
6.41992	0.207049	1415.95
6.52002	0.210667	1438.48
6.62012	0.213543	1460.04
6.72021	0.217512	1483.63
6.82031	0.219581	1505.89
6.92041	0.223771	1530.672
7.02051	0.226977	1552.77
7.12061	0.230065	1575.15
7.2207	0.233844	1597.48
7.3208	0.237334	1618.079
7.4209	0.239822	1640.88
7.521	0.243711	1664.32
7.62109	0.246704	1690.09
7.72119	0.251725	1713.82
7.82129	0.254509	1734.63
7.92139	0.256851	1755.38
8.02148	0.2614826	1779.13
8.121582	0.26345	1801.86
8.22168	0.26812	1825.625
8.32178	0.270835	1849.2
8.421875	0.274816	1872.15
8.52197	0.27816	1893.63
8.62207	0.2807945	1916.46
8.722168	0.284794	1937.67
8.82227	0.287795	1960.84
8.92236	0.291261	1979.61
9.02246	0.294727	2002.142
9.12256	0.298285	2024.69
9.22266	0.301415	2046.42
9.32275	0.3045857	2068.57
9.42285	0.307277	2092.25
9.52295	0.310221	2114.75
9.62305	0.315195	2136.49
9.72314	0.316304	2157.11
9.82324	0.32109	2180.35
9.92334	0.323486	2201.14
10.0234	0.328103	2224.23
10.1235	0.330269	2248.4
10.2236	0.334656	2269.55
10.32373	0.338554	2297.42
10.4238	0.342107	2321.78
10.5239	0.34537	2342.73
10.624	0.3485918	2364.6
10.7241	0.351527	2385.04
10.8242	0.355059	2407.62
10.9243	0.358841	2431.82
11.0244	0.362989	2459.15
11.1245	0.368381	2488.34
11.2246	0.373012	2527.81
11.3247	0.377768	2558.39
11.4248	0.380394	2577.56
11.5249	0.38313	2597.91
11.625	0.386965	2621.19
11.7251	0.390193	2641.42
11.8252	0.3941983	2660.88
11.9253	0.396794	2681.66
12.0254	0.400421	2702.96
12.1255	0.403464	2724.05
12.2256	0.406393	2743.09
12.3257	0.410533	2763.89
12.4258	0.414339	2785.54
12.5259	0.416726	2807.08
12.626	0.420031	2826.58
12.7261	0.422961	2849.501
12.8262	0.426498	2867.86
12.92627	0.430673	2889.99
13.0264	0.4327178	2909.835
13.1265	0.4361	2930.9
13.2266	0.43869	2952.68
13.32666	0.443026	2972.03
13.4268	0.446203	2994.05
13.5269	0.449184	3013.939
13.627	0.453374	3034.623
13.7271	0.454757	3055.31
13.8271	0.459075	3076.96
13.9272	0.462657	3098.71
14.0273	0.465208	3118.01
14.1274	0.468317	3139.32
14.2275	0.4713	3161.26
14.3276	0.474861	3181.343
14.4277	0.478718	3203.8
14.5278	0.4811883	3226.58
14.62793	0.484711	3246.93
14.728	0.488046	3267.96
14.8281	0.491765	3288.17
14.9282	0.494608	3307.6
15.02832	0.497854	3328.42
15.1284	0.501612	3346.36
15.2285	0.5048126	3369.83
15.3286	0.507796	3393.52
15.4287	0.511256	3413.57
15.5288	0.5144	3435.15
15.6289	0.517058	3456.394
15.729	0.5210191	3478.03
15.8291	0.5246222	3502.39
15.9292	0.527602	3516.4
16.0293	0.531274	3540.56
16.1294	0.534695	3562.1
16.2295	0.538194	3583.13
16.32959	0.54186	3602.269
16.4297	0.543401	3623.86
16.5298	0.546589	3648.14
16.6299	0.5503267	3670.127
16.72998	0.55432	3690.64
16.8301	0.55756	3712.44
16.9302	0.560415	3733.22
17.0303	0.564054	3753.89
17.1304	0.567192	3775.58
17.2305	0.573301	3810.37
17.3306	0.575921	3832.74
17.4307	0.579566	3850.19
17.5308	0.581753	3868.86
17.6309	0.58566	3888.63
17.731	0.5887419	3910.19
17.8311	0.592035	3929.27
17.9312	0.594899	3949.75
18.03125	0.5990535	3971.07
18.1313	0.60105	3991.23
18.2314	0.605103	4012.42
18.3315	0.606841	4032.5
18.4316	0.610811	4052.47
18.5317	0.61442	4071.81
18.6318	0.617504	4093.77
18.7319	0.620928	4116.65
18.832	0.624335	4139.29
18.9321	0.630245	4161.03
19.0322	0.632083	4184.95
19.1323	0.63501	4204.88
19.2324	0.637218	4227.29
19.33252	0.6413132	4247.67
19.4326	0.6447345	4268.248
19.5327	0.647905	4288.67
19.6328	0.651225	4310.11
19.73291	0.654572	4330.72
19.833	0.657961	4352.48
19.9331	0.661361	4371.59
20.0332	0.664121	4392.81
20.1333	0.667784	4414.978
20.2334	0.670972	4436.84
20.3335	0.6741643	4458.93
20.4336	0.678051	4478.519
20.5337	0.6812036	4498.8
20.6338	0.684163	4518.94
20.7339	0.68725	4541.84
20.834	0.691554	4561.39
20.9341	0.694346	4583.28
21.03418	0.698477	4602.207
21.1343	0.700361	4625.12
21.2344	0.70433	4646.12
21.3345	0.70734	4667.77
21.43457	0.711182	4691.41
21.5347	0.714532	4714.21
21.6348	0.718546	4736.96
21.7349	0.721532	4754.45
21.835	0.724822	4776.33
21.9351	0.727254	4796.85
22.0352	0.7312268	4815.82
22.1353	0.733632	4837.01
22.2354	0.73818	4859.689
22.3354	0.741148	4882.47
22.4355	0.744861	4903.11
22.5356	0.748938	4924.08
22.6357	0.751656	4943.68
22.73584	0.754786	4965.42
22.8359	0.757524	4986.74
22.936	0.760478	5006.61
23.0361	0.7644	5026.88
23.13623	0.768393	5048.05
23.2363	0.771397	5069.1
23.3364	0.773701	5091.36
23.4365	0.778368	5111.57
23.5366	0.780758	5131.34
23.6367	0.784388	5153.58
23.7368	0.787956	5172.083
23.8369	0.791317	5193.29
23.937	0.794995	5212.17
24.0371	0.797585	5235.28
24.1372	0.800723	5254.61
24.2373	0.805724	5274.98
24.3374	0.807717	5295.76
24.4375	0.81121	5318.13
24.5376	0.814465	5337.29
24.6377	0.817883	5358.96
24.7378	0.820971	5379.3
24.8379	0.825351	5398.2
24.938	0.828376	5419.66
25.0381	0.831211	5435.91
25.1382	0.833666	5462.11
25.2383	0.838351	5485.06
25.3384	0.84196	5504.06
25.4385	0.844973	5525.07
25.5386	0.847867	5547.21
25.6387	0.850689	5565.46
25.73877	0.855529	5587.91
25.8389	0.857824	5609.14
25.939	0.861526	5630.94
26.0391	0.864553	5651.87
26.13916	0.868103	5675.29
26.2393	0.87148	5696.99
26.3394	0.873324	5715.52
26.4395	0.87781	5737.4
26.5396	0.882131	5758.1
26.6396	0.885066	5778.18
26.7397	0.888234	5800.68
26.8398	0.891417	5820.13
26.9399	0.894454	5840.85
27.04	0.898072	5861.38
27.1401	0.901735	5879.29
27.2402	0.906041	5902.55
27.3403	0.908503	5923.88
27.44043	0.911751	5944.041
27.5405	0.915536	5965.03
27.6406	0.9192735	5983.98
27.7407	0.920942	6003.61
27.84082	0.924513	6023.93
27.9409	0.927559	6044.9
28.041	0.930482	6067.022
28.1411	0.934425	6089.19
28.2412	0.938246	6111.9
28.3413	0.941622	6131.8
28.4414	0.945753	6153.3
28.5415	0.948846	6173.21
28.6416	0.9511441	6195.82
28.7417	0.954729	6215.314
28.8418	0.958711	6237.687
28.9419	0.961119	6258.27
29.042	0.965801	6277.65
29.14209	0.969625	6296.47
29.2422	0.9716779	6319.87
29.3423	0.9760797	6341.07
29.4424	0.978163	6359.85
29.54248	0.981548	6380.54
29.6426	0.985354	6404.54
29.7427	0.988954	6425.49
29.8428	0.99248	6446.43
29.9429	0.995398	6466.9
30.043	0.999326	6487.33
30.1431	1.00082	6507.6
30.2432	1.00465	6529.43
30.3433	1.00748	6550.12
30.4434	1.01175	6572.79
30.5435	1.01556	6594.8
30.6436	1.01877	6612.33
30.7437	1.022169	6631.7
30.84375	1.02409	6651.95
30.9438	1.029098	6674.44
31.0439	1.0316	6695.49
31.144	1.03576	6718.82
31.2441	1.039198	6737.51
31.3442	1.041171	6760.07
31.4443	1.0454	6782.67
31.5444	1.04986	6798.8
31.6445	1.05135	6821.13
31.7446	1.05551	6842.64
31.8447	1.058194	6862.62
31.9448	1.06235	6882.543
32.0449	1.06537	6904.33
32.14502	1.06885	6925.22
32.2451	1.07252	6947.08
32.3452	1.07568	6966.04
32.4453	1.07842	6987.28
32.54541	1.0814	7005.71
32.6455	1.08521	7027.66
32.7456	1.088348	7048.585
32.8457	1.09202	7068.57
32.9458	1.0954	7089.71
33.0459	1.09801	7111.74
33.146	1.10209	7133.19
33.2461	1.10578	7153.26
33.3462	1.10887	7175.55
33.4463	1.111719	7197.56
33.5464	1.11515	7215.29
33.6465	1.11888	7237.16
33.7466	1.12195	7255.94
33.84668	1.12522	7277.73
33.9468	1.12894	7294.61
34.0469	1.13213	7313.35
34.147	1.1353	7337.66
34.24707	1.13859	7360.87
34.3472	1.14153	7378.793
34.4473	1.1453	7397.7
34.5474	1.14904	7423.64
34.6475	1.15254	7445.23
34.7476	1.15528	7466.46
34.8477	1.158905	7488.03
34.9478	1.16172	7508.41
35.0479	1.16575	7529.92
35.1479	1.16836	7548.981
35.248	1.17247	7567.24
35.3481	1.17557	7588.46
35.4482	1.17861	7612.68
35.54834	1.18284	7632.395
35.6484	1.18589	7653.51
35.7485	1.18904	7672.89
35.8486	1.19182	7693.479
35.94873	1.19545	7716.39
36.0488	1.19858	7738.53
36.1489	1.20242	7757.88
36.249	1.20551	7778.34
36.3491	1.20922	7799.47
36.4492	1.21238	7818.58
36.5493	1.21625	7839.8
36.6494	1.21872	7859.74
36.7495	1.22267	7880.2
36.8496	1.22557	7901.06
36.9497	1.22954	7923.96
37.0498	1.23267	7945.21
37.1499	1.236257	7966.93
37.25	1.2395	7987.45
37.3501	1.24337	8010.21
37.4502	1.246798	8031.31
37.5503	1.25007	8048.43
37.6504	1.25372	8069.78
37.7505	1.25624	8090.5
37.8506	1.25905	8113.12
37.9507	1.26185	8131.59
38.0508	1.26694	8155.73
38.1509	1.27075	8178.26
38.251	1.273489	8198.48
38.3511	1.27629	8218.35
38.4512	1.27913	8238.13
38.55127	1.28213	8257.87
38.6514	1.28607	8276.61
38.7515	1.28935	8299.89
38.8516	1.29295	8321.34
38.95166	1.29606	8338.52
39.0518	1.29904	8358.041
39.1519	1.30227	8379.19
39.252	1.30675	8400.71
39.3521	1.30987	8419.22
39.4521	1.31324	8439.873
39.5522	1.31617	8461.95
39.6523	1.32025	8484.11
39.7524	1.32296	8505.53
39.8525	1.32648	8525.52
39.9526	1.33056	8547.37
40.0527	1.33376	8568.14
40.1528	1.33912	8590.09
40.25293	1.34054	8610.46
40.353	1.34334	8632.12
40.4531	1.34731	8653.09
40.5532	1.3501	8674.23
40.65332	1.35418	8697.19
40.7534	1.358	8718.94
40.8535	1.360926	8740.19
40.9536	1.36507	8772.55
41.0537	1.36884	8799.47
41.1538	1.37272	8817.77
41.2539	1.37594	8835.26
41.354	1.3788	8856.84
41.4541	1.38141	8874.84
41.5542	1.38501	8893.07
41.6543	1.38849	8912.4
41.7544	1.39135	8929.376
41.8545	1.39391	8948.83
41.95459	1.39796	8971.998
42.0547	1.40108	8992.63
42.1548	1.40381	9012.11
42.2549	1.4072	9032.76
42.35498	1.41031	9050.35
42.4551	1.41329	9072
42.5552	1.41726	9093.37
42.6553	1.42019	9112.59
42.7554	1.42328	9133.84
42.8555	1.4272	9153.66
42.9556	1.4301	9170.86
43.0557	1.43443	9191.55
43.1558	1.43663	9212.89
43.2559	1.44014	9231.66
43.356	1.44262	9251.51
43.4561	1.44729	9274.58
43.5562	1.45006	9295.81
43.65625	1.45325	9317.53
43.7563	1.456061	9336.7
43.8564	1.45988	9357.48
43.9565	1.46308	9376.49
44.0566	1.46688	9396.23
44.1567	1.46922	9417.585
44.2568	1.47289	9435.2
44.3569	1.47674	9455.627
44.457	1.479286	9477.458
44.5571	1.481691	9497.3
44.6572	1.48597	9518.5
44.7573	1.48844	9539.68
44.8574	1.49335	9566.42
44.95752	1.49641	9587.43
45.0576	1.50022	9607.9
45.1577	1.503247	9628.32
45.2578	1.506263	9646.61
45.35791	1.50885	9668.98
45.458	1.5128	9689.53
45.5581	1.51598	9708.96
45.6582	1.51911	9731.57
45.7583	1.52349	9750.98
45.8584	1.52673	9769.2
45.9585	1.53002	9790.13
46.0586	1.53238	9809.74
46.1587	1.53607	9831.84
46.2588	1.5384	9852.666
46.3589	1.54228	9872.19
46.459	1.54556	9894.07
46.5591	1.54853	9914.56
46.65918	1.5522	9933.47
46.7593	1.55605	9955.56
46.8594	1.55895	9977.92
46.9595	1.56324	9997.32
47.05957	1.56517	10017.436
47.1597	1.56916	10038.855
47.2598	1.57232	10059.819
47.3599	1.57572	10079.638
47.46	1.58007	10101.796
47.5601	1.58279	10122.884
47.6602	1.5855	10143.25
47.7603	1.58944	10162.437
47.8604	1.59161	10181.13
47.9604	1.59631	10204.901
48.0605	1.60035	10227.505
48.1606	1.60306	10248.521
48.2607	1.60664	10270.242
48.36084	1.609242	10290.168
48.4609	1.61283	10313.059
48.561	1.61591	10335.852
48.6611	1.61961	10354.795
48.76123	1.6232	10375.54
48.8613	1.62674	10395.853
48.9614	1.62995	10413.294
49.0615	1.63368	10432.351
49.1616	1.63681	10453.082
49.2617	1.63997	10472.124
49.3618	1.642856	10493.742
49.4619	1.64537	10511.185
49.562	1.64971	10532.857
49.6621	1.65299	10555.672
49.7622	1.65671	10576.239
49.8623	1.6597	10597.199
49.9624	1.66307	10619.809
50.0625	1.66709	10640.645
50.1626	1.66887	10656.015
50.2627	1.67299	10674.521
50.3628	1.67573	10696.217
50.4629	1.67926	10716.378
50.563	1.68277	10741
50.6631	1.68629	10763.836
50.7632	1.68939	10783.964
50.8633	1.69354	10803.895
50.9634	1.69664	10823.987
51.0635	1.69974	10844.077
51.1636	1.70383	10866.252
51.2637	1.70687	10886.592
51.36377	1.70943	10906.969
51.4639	1.71314	10929.709
51.564	1.71684	10946.437
51.6641	1.71924	10970.314
51.76416	1.72341	10990.627
51.8643	1.72763	11010.516
51.9644	1.7296	11029.933
52.0645	1.73338	11050.468
52.1646	1.73667	11072.528
52.2646	1.73975	11091.605
52.3647	1.7428	11112.461
52.4648	1.74549	11132.043
52.5649	1.74948	11150.304
52.665	1.75385	11173.654
52.7651	1.757434	11194.597
52.8652	1.75996	11214.597
52.9653	1.76304	11234.691
53.06543	1.76634	11253.036
53.1655	1.76941	11274.911
53.2656	1.77322	11294.104
53.3657	1.77594	11315.099
53.46582	1.77937	11335.911
53.5659	1.78219	11356.368
53.666	1.78621	11376.073
53.7661	1.78999	11396.295
53.8662	1.79262	11416.326
53.9663	1.796478	11437.427
54.0664	1.7993	11457.976
54.1665	1.80334	11477.206
54.2666	1.80577	11500.844
54.3667	1.8106	11519.427
54.4668	1.81269	11541.879
54.5669	1.81598	11561.351
54.667	1.82024	11582.689
54.76709	1.82213	11600.994
54.8672	1.82628	11621.707
54.9673	1.829955	11642.517
55.0674	1.83167	11660.165
55.16748	1.8366	11682.621
55.2676	1.84032	11704.647
55.3677	1.84287	11723.059
55.4678	1.84707	11745.232
55.5679	1.84994	11763.119
55.668	1.85313	11782.697
55.7681	1.85527	11804.224
55.8682	1.858902	11823.88
55.9683	1.86265	11843.784
56.0684	1.86597	11865.503
56.1685	1.86872	11884.959
56.2686	1.87229	11905.847
56.3687	1.87601	11927.66
56.46875	1.879853	11949.302
56.5688	1.88356	11968.313
56.6689	1.886338	11989.19
56.769	1.88921	12009.448
56.8691	1.89348	12032.18
56.9692	1.895991	12049.814
57.0693	1.89932	12070.53
57.1694	1.90302	12089.254
57.2695	1.90583	12110.408
57.3696	1.91027	12129.419
57.4697	1.9132	12146.133
57.5698	1.91703	12165.583
57.6699	1.91884	12186.498
57.77002	1.92228	12209.555
57.8701	1.92551	12230.237
57.9702	1.929158	12251.775
58.0703	1.93295	12272.225
58.17041	1.9362	12290.209
58.2705	1.94006	12312.648
58.3706	1.94348	12330.713
58.4707	1.94614	12351.813
58.5708	1.94915	12372.778
58.6709	1.95246	12392.467
58.771	1.95721	12414.486
58.8711	1.95893	12433.98
58.9712	1.96266	12454.017
59.0713	1.96543	12473.581
59.1714	1.96981	12493.938
59.2715	1.97302	12513.458
59.3716	1.97586	12536.045
59.47168	1.97994	12554.664
59.5718	1.98308	12575.331
59.6719	1.98626	12596.667
59.772	1.98962	12615.067
59.87207	1.99269	12635.63
59.9722	1.996538	12655.835
60.0723	2.00008	12674.738
60.1724	2.00353	12695.589
60.2725	2.0068	12715.839
60.3726	2.00961	12738.912
60.4727	2.013278	12759.083
60.5728	2.01679	12778.438
60.6729	2.01921	12798.271
60.7729	2.022624	12819.331
60.873	2.02564	12838.251
60.9731	2.03018	12858.633
61.0732	2.03211	12876.176
61.17334	2.03634	12895.093
61.2734	2.04015	12915.518
61.3735	2.042398	12936.337
61.4736	2.04669	12959.36
61.57373	2.0491	12979.276
61.6738	2.05252	13003.643
61.7739	2.0573	13025.22
61.874	2.06099	13044.027
61.9741	2.06428	13061.487
62.0742	2.06654	13080.431
62.1743	2.070394	13100.281
62.2744	2.07261	13117.869
62.3745	2.07655	13137.699
62.4746	2.07965	13158.872
62.5747	2.08246	13180.181
62.6748	2.08623	13201.167
62.7749	2.08908	13220.692
62.875	2.09352	13242.256
62.9751	2.09684	13263.672
63.0752	2.099824	13283.8
63.1753	2.10263	13303.425
63.2754	2.10637	13324.223
63.3755	2.10982	13342.48
63.4756	2.11262	13361.903
63.5757	2.11748	13381.087
63.6758	2.12005	13400.687
63.7759	2.12425	13422.23
63.876	2.12617	13440.064
63.9761	2.130264	13463.032
64.0762	2.13367	13483.443
64.17627	2.137032	13506.368
64.2764	2.14003	13525.035
64.3765	2.14348	13544.474
64.4766	2.1469	13562.054
64.57666	2.15022	13581.848
64.6768	2.15307	13601.168
64.7769	2.15666	13622.373
64.877	2.16029	13643.862
64.9771	2.16373	13663.487
65.0771	2.166924	13681.95
65.1772	2.17019	13702.973
65.2773	2.17287	13721.72
65.3774	2.17631	13741.78
65.4775	2.17929	13762.944
65.5776	2.18387	13785.101
65.6777	2.18783	13803.793
65.7778	2.18985	13821.735
65.87793	2.19396	13841.746
65.978	2.1968	13862.312
66.0781	2.20057	13881.833
66.1782	2.20464	13899.855
66.27832	2.20736	13919.323
66.3784	2.20991	13938.22
66.4785	2.21406	13960.201
66.5786	2.21614	13980.249
66.6787	2.21996	14000.165
66.7788	2.22383	14019.714
66.8789	2.22804	14040.549
66.979	2.22994	14058.999
67.0791	2.2342	14078.563
67.1792	2.23661	14099.551
67.2793	2.24091	14122.996
67.3794	2.24447	14143.217
67.4795	2.24732	14162.783
67.57959	2.24995	14182.82
67.6797	2.2534	14201.095
67.7798	2.25799	14221.72
67.8799	2.26079	14241.462
67.97998	2.2632	14257.469
68.0801	2.26728	14276.308
68.1802	2.26984	14295.19
68.2803	2.27381	14317.659
68.3804	2.276823	14336.772
68.4805	2.28049	14356.533
68.5806	2.28311	14376.522
68.6807	2.28752	14393.659
68.7808	2.29079	14415.284
68.8809	2.29377	14434.774
68.981	2.29736	14454.901
69.0811	2.29994	14473.991
69.1812	2.30329	14493.21
69.28125	2.306941	14514.776
69.3813	2.31109	14534.858
69.4814	2.31318	14552.756
69.5815	2.31729	14574.463
69.6816	2.320519	14596.384
69.7817	2.32328	14615.553
69.8818	2.32714	14634.849
69.9819	2.33011	14654.43
70.082	2.33387	14672.369
70.1821	2.336365	14691.813
70.2822	2.34091	14711.787
70.3823	2.34431	14733.616
70.4824	2.34636	14754.15
70.58252	2.350369	14774.918
70.6826	2.35417	14793.514
70.7827	2.35703	14814.198
70.8828	2.36135	14834.533
70.98291	2.36447	14853.868
71.083	2.36759	14873.813
71.1831	2.37052	14892.379
71.2832	2.37302	14912.331
71.3833	2.37784	14929.972
71.4834	2.37992	14951.891
71.5835	2.38329	14971.101
71.6836	2.3865	14992.294
71.7837	2.39159	15012.229
71.8838	2.39358	15029.597
71.9839	2.39755	15050.563
72.084	2.4013	15069.234
72.1841	2.40345	15089.863
72.28418	2.40758	15110.004
72.3843	2.41035	15129.523
72.4844	2.41408	15150.03
72.5845	2.41749	15166.651
72.68457	2.42098	15185.931
72.7847	2.42361	15207.674
72.8848	2.4276	15220.01
72.9849	2.43046	15239.676
73.085	2.43386	15258.604
73.1851	2.43781	15275.154
73.2852	2.43902	15291.595
73.3853	2.44369	15313.537
73.4854	2.44719	15336.887
73.5854	2.45102	15362.833
73.6855	2.45446	15383.224
73.7856	2.45834	15399.438
73.8857	2.46112	15416.968
73.98584	2.46439	15435.988
74.0859	2.46738	15454.386
74.186	2.47029	15472.703
74.2861	2.4739	15491.272
74.38623	2.47772	15509.908
74.4863	2.48002	15529.17
74.5864	2.48432	15549.253
74.6865	2.4876	15569.728
74.7866	2.49053	15590.398
74.8867	2.49443	15604.339
74.9868	2.49758	15627.001
75.0869	2.50023	15646.263
75.187	2.50408	15667.31
75.2871	2.50771	15685.39
75.3872	2.5113	15603.708
75.4873	2.51471	15626.8
75.5874	2.51751	15637.319
75.6875	2.52095	15658.421
75.7876	2.52352	15679.023
75.8877	2.527514	15697.862
75.9878	2.53133	15717.277
76.0879	2.53486	15733.053
76.188	2.53789	15751.189
76.2881	2.54142	15770.379
76.3882	2.54481	15791.092
76.4883	2.54712	15807.429
76.5884	2.550143	15827.187
76.6885	2.55448	15844.344
76.7886	2.55718	15863.29
76.8887	2.56093	15882.877
76.98877	2.56412	15904.225
77.0889	2.56694	15922.864
77.189	2.57114	15938.76
77.2891	2.57449	15958.313
77.38916	2.5781	15975.73
77.4893	2.5817	15998.042
77.5894	2.5838	16015.435
77.6895	2.58769	16034.208
77.7896	2.59027	16051.05
77.8896	2.59446	16071.596
77.9897	2.59727	16090.891
78.0898	2.60113	16109.309
78.1899	2.60449	16130.773
78.29	2.60612	16145.71
78.3901	2.60996	16163.958
78.4902	2.61292	16183.237
78.5903	2.61841	16200.31
78.69043	2.620831	16220.571
78.7905	2.62444	16242.588
78.8906	2.62734	16261.951
78.9907	2.630362	16279.451
79.09082	2.63408	16299.078
79.1909	2.63729	16319.502
79.291	2.64109	16338.121
79.3911	2.64399	16356.68
79.4912	2.64729	16378.202
79.5913	2.64992	16396.641
79.6914	2.65437	16416.078
79.7915	2.65768	16434.002
79.8916	2.65981	16428.82
79.9917	2.66368	16447.795
80.0918	2.66754	16465.902
80.1919	2.6713	16483.086
80.292	2.67469	16500.682
80.39209	2.67729	16518.131
80.4922	2.68142	16533.814
80.5923	2.685	16460.984
80.6924	2.68774	16481.723
80.79248	2.6911	16499.818
80.8926	2.69493	16517.318
80.9927	2.69755	16531.146
81.0928	2.70118	16545.416
81.1929	2.70487	16562.619
81.293	2.70772	16578.734
81.3931	2.71079	16597.094
81.4932	2.71377	16617.863
81.5933	2.7176	16636.152
81.6934	2.7226	16434.664
81.7935	2.7276	16358.294
81.8936	2.73002	16353.184
81.9937	2.734071	16350.738