File: dublin_poster_plots/Tensile Tests - Quenched Samples 20180604/BLPX-M1-Q015-05_20180604/specimen.dat
MTS793|MPT|ENU|1|2|.|/|:|1|0|0|A

Data Acquisition						Time:	100.214	s	6/4/2018 3:16:30 PM
Time	MTS 4 Displacement 4	MTS 4 Force 4
s	mm	N
0.113281	0.000318885	-35.5861
0.213379	0.00254512	-10.5008
0.313477	0.00756979	16.0096
0.413574	0.0106275	39.8269
0.513672	0.0137925	62.7744
0.61377	0.0163078	85.83078
0.713867	0.0207335	110.721
0.813965	0.022313	135.479
0.9140625	0.0279516	160.575
1.01416	0.0299543	182.848
1.11426	0.0323713	209.791
1.21436	0.0364125	235.3
1.31445	0.0406414	257.641
1.41455	0.0440538	283.101
1.51465	0.0456929	305.194
1.61475	0.0504434	335.225
1.71484	0.0534624	360.2204
1.81494	0.0562757	383.372
1.91504	0.0602901	408.833
2.01514	0.0635833	435.3924
2.11523	0.0666291	458.5174
2.215332	0.06955862	486.132
2.31543	0.073421	509.7937
2.41553	0.0758141	534.098
2.515625	0.079602	560.336
2.61572	0.0829488	584.696
2.71582	0.0856668	609.84
2.815918	0.0905514	635.107
2.91602	0.0928193	662.192
3.01611	0.0960588	684.9223
3.11621	0.099948	710.656
3.21631	0.1029402	736.555
3.31641	0.105992	762.334
3.4165	0.110725	787.223
3.5166	0.112319	813.528
3.6167	0.116408	839.09
3.7168	0.1198411	863.401
3.81689	0.122657	890.114
3.91699	0.126496	913.893
4.01709	0.128704	936.753
4.11719	0.131822	962.854
4.21729	0.1365006	991.263
4.31738	0.138974	1018.53
4.41748	0.142166	1045.214
4.51758	0.146067	1066.17
4.61768	0.149781	1091.42
4.71777	0.152141	1114.4
4.81787	0.15581	1140.44
4.91797	0.159717	1168.2
5.01807	0.163734	1191.7
5.11816	0.165358	1215.81
5.21826	0.169271	1241.19
5.31836	0.17319	1267.43
5.418457	0.175449	1290.3
5.51855	0.179049	1316.27
5.61865	0.181928	1341.661
5.71875	0.185981	1367.34
5.81885	0.189486	1392.291
5.91895	0.192162	1416.6
6.019043	0.195619	1444.689
6.11914	0.199586	1468.35
6.21924	0.20251	1494.89
6.31934	0.205484	1519.68
6.41943	0.208873	1543.37
6.51953	0.212434	1569.06
6.61963	0.214913	1594.03
6.71973	0.219035	1616.88
6.81982	0.22319	1644.01
6.91992	0.224945	1667.58
7.02002	0.229442	1692.53
7.12012	0.233459	1717.98
7.22021	0.235841	1741.53
7.32031	0.238961	1769.17
7.42041	0.242636	1796.58
7.52051	0.246322	1820.42
7.62061	0.249571	1843.08
7.7207	0.253028	1867.14
7.8208	0.255549	1891.32
7.9209	0.259969	1919.05
8.021	0.262818	1945.19
8.12109	0.265864	1969.822
8.22119	0.268856	1994.33
8.32129	0.273356	2015.62
8.42139	0.276387	2045.64
8.52148	0.279656	2070.14
8.621582	0.283003	2092.77
8.72168	0.286397	2119.24
8.82178	0.28984	2143.39
8.921875	0.292578	2167.1
9.02197	0.2964884	2190
9.12207	0.300285	2215.33
9.222168	0.303251	2238.978
9.32227	0.305563	2265.56
9.42236	0.308478	2291.77
9.52246	0.3121525	2314.5
9.62256	0.317231	2342.7
9.72266	0.319567	2363.82
9.82275	0.323269	2392.91
9.92285	0.326982	2420.69
10.0229	0.330287	2445.77
10.123	0.334695	2473.45
10.2231	0.337088	2499.24
10.3232	0.341231	2523.42
10.42334	0.34388	2549.8
10.5234	0.347555	2575.59
10.6235	0.352249	2609.86
10.7236	0.358307	2653.9
10.82373	0.362593	2679.96
10.9238	0.364733	2704.22
11.0239	0.369033	2726.19
11.124	0.3718555	2751.18
11.2241	0.37474	2777.45
11.3242	0.377744	2798.96
11.4243	0.381526	2820.99
11.5244	0.383681	2844.43
11.6245	0.388071	2869.45
11.7246	0.391471	2893.23
11.8247	0.39416	2919.47
11.9248	0.3975898	2941.71
12.0249	0.400889	2964.98
12.125	0.403497	2989.09
12.2251	0.407183	3012.36
12.3252	0.410211	3035.64
12.4253	0.413162	3061.4
12.5254	0.4160285	3083.36
12.6255	0.4211247	3106.87
12.7256	0.424075	3131.25
12.8257	0.427297	3153.6
12.9258	0.428957	3177.27
13.0259	0.433496	3202.97
13.126	0.436783	3225.91
13.2261	0.440472	3248.78
13.3262	0.442761	3276.21
13.42627	0.44702	3299.34
13.5264	0.450358	3322.88
13.6265	0.453103	3345.78
13.7266	0.455749	3368.61
13.82666	0.459385	3392.04
13.9268	0.46252	3417.2
14.0269	0.466737	3442.75
14.127	0.468987	3464.15
14.2271	0.473547	3489.45
14.3271	0.475958	3512.65
14.4272	0.478423	3535.87
14.5273	0.482908	3558.126
14.6274	0.485572	3583.68
14.7275	0.489277	3607.65
14.8276	0.492454	3631.8
14.9277	0.496611	3653.79
15.0278	0.499764	3677.94
15.12793	0.502923	3700.61
15.228	0.505468	3726.32
15.3281	0.508216	3751.84
15.4282	0.512213	3771.75
15.52832	0.515607	3797.93
15.6284	0.520051	3820.79
15.7285	0.522646	3846.22
15.8286	0.524598	3869.74
15.9287	0.528884	3892.78
16.0288	0.53151	3919.99
16.1289	0.535625	3942.87
16.229	0.53919	3967.68
16.3291	0.542444	3991.62
16.4292	0.545204	4015.665
16.5293	0.548613	4038.71
16.6294	0.551403	4060.66
16.7295	0.555587	4086.958
16.82959	0.559345	4111.68
16.9297	0.562409	4136.58
17.0298	0.565925	4161.97
17.1299	0.569028	4184.19
17.22998	0.573352	4204.87
17.3301	0.575536	4228.606
17.4302	0.579596	4255.75
17.5303	0.582322	4280.3
17.6304	0.586107	4304.51
17.7305	0.588936	4328.95
17.8306	0.592482	4350.84
17.9307	0.595456	4373.57
18.0308	0.599274	4399.45
18.1309	0.602776	4422.84
18.231	0.60569	4445.49
18.3311	0.608546	4471.76
18.4312	0.613064	4493.96
18.53125	0.615862	4517.05
18.6313	0.618953	4538.99
18.7314	0.622433	4565.03
18.8315	0.625733	4588.999
18.9316	0.629187	4612.16
19.0317	0.632519	4636.03
19.1318	0.635204	4658.48
19.2319	0.639454	4680.77
19.332	0.642815	4706.02
19.4321	0.646111	4730.49
19.5322	0.648239	4753.66
19.6323	0.65248	4779.82
19.7324	0.656351	4807.04
19.83252	0.660554	4830.28
19.9326	0.6623745	4849.707
20.0327	0.665945	4873.62
20.1328	0.669459	4898.88
20.23291	0.672665	4920.2
20.333	0.675675	4942.36
20.4331	0.678864	4964.64
20.5332	0.682655	4990.54
20.6333	0.685847	5014.814
20.7334	0.689822	5037.42
20.8335	0.69215	5062.16
20.9336	0.695601	5084.72
21.0337	0.699288	5110.53
21.1338	0.70225	5132.61
21.2339	0.706163	5155.06
21.334	0.709364	5180.93
21.4341	0.711691	5203.87
21.53418	0.7160753	5227.13
21.6343	0.719383	5251
21.7344	0.722674	5276.13
21.8345	0.725555	5296.55
21.93457	0.7299751	5320.3
22.0347	0.732777	5342.28
22.1348	0.73522	5364.99
22.2349	0.739151	5388.99
22.335	0.7424742	5412.03
22.4351	0.746706	5435.46
22.5352	0.750005	5458.11
22.6353	0.753361	5483.35
22.7354	0.756246	5508.814
22.8354	0.758186	5526.2
22.9355	0.763124	5551.32
23.0356	0.765783	5576.22
23.1357	0.769341	5598.22
23.23584	0.772962	5621.53
23.3359	0.775489	5647.168
23.436	0.780156	5670.47
23.5361	0.781628	5691.292
23.63623	0.786123	5715.563
23.7363	0.789288	5739.13
23.8364	0.792176	5762.87
23.9365	0.795481	5786.252
24.0366	0.799865	5807.13
24.1367	0.803605	5829.25
24.2368	0.805998	5852.62
24.3369	0.809237	5871.82
24.437	0.812629	5897.749
24.5371	0.817353	5922.41
24.6372	0.819653	5943.39
24.7373	0.823709	5967.55
24.8374	0.825727	5991.18
24.9375	0.828487	6013.98
25.0376	0.832179	6034.09
25.1377	0.836533	6060.71
25.2378	0.83966	6088.21
25.3379	0.8431375	6112.51
25.438	0.84686	6135.65
25.5381	0.848824	6156.51
25.6382	0.851884	6178.58
25.7383	0.85583	6201.23
25.8384	0.859088	6224.96
25.9385	0.8641	6246.939
26.0386	0.8661449	6269.9
26.1387	0.869653	6294.61
26.23877	0.873026	6318.32
26.3389	0.876293	6341.51
26.439	0.879046	6362.25
26.5391	0.882813	6386.62
26.63916	0.887001	6410.03
26.7393	0.889373	6432.34
26.8394	0.892699	6454.96
26.9395	0.896081	6477.99
27.0396	0.8990556	6501.23
27.1396	0.902137	6524.53
27.2397	0.905645	6544.95
27.3398	0.9093821	6569.14
27.4399	0.912952	6591.49
27.54	0.916472	6615.81
27.6401	0.9187758	6636.76
27.7402	0.922865	6660.89
27.8403	0.925338	6684.9
27.94043	0.929728	6707.66
28.0405	0.932696	6729.44
28.1406	0.936213	6754.15
28.2407	0.939736	6778.11
28.34082	0.942558	6800.81
28.4409	0.946218	6822.14
28.541	0.948146	6844.59
28.6411	0.953102	6867.13
28.7412	0.955877	6889.04
28.8413	0.959212	6913.17
28.9414	0.963172	6938.3
29.0415	0.966784	6958.73
29.1416	0.9691745	6983.2
29.2417	0.9727478	7004.85
29.3418	0.976241	7028.58
29.4419	0.979564	7050.69
29.542	0.983676	7074.3
29.64209	0.985369	7091.98
29.7422	0.989425	7116.9
29.8423	0.993082	7141.41
29.9424	0.996479	7163.49
30.04248	0.998721	7182.82
30.1426	1.00326	7208.55
30.2427	1.006192	7232.498
30.3428	1.01029	7255.86
30.4429	1.01275	7276.32
30.543	1.01549	7298.34
30.6431	1.018545	7322.83
30.7432	1.02284	7347.57
30.8433	1.02693	7368.542
30.9434	1.02912	7391.04
31.0435	1.03275	7414.3
31.1436	1.03542	7437.04
31.2437	1.039657	7461.64
31.34375	1.0432	7484.23
31.4438	1.04548	7507.5
31.5439	1.0497	7530.57
31.644	1.05301	7552
31.7441	1.05602	7573.88
31.8442	1.059258	7596.27
31.9443	1.06281	7622
32.0444	1.06586	7643.72
32.1445	1.06955	7666.502
32.2446	1.07238	7690.15
32.3447	1.07578	7710.47
32.4448	1.07927	7731.76
32.5449	1.08311	7754.36
32.64502	1.08647	7775.165
32.7451	1.08945	7800
32.8452	1.09356	7822.26
32.9453	1.09669	7846.71
33.04541	1.1	7867.33
33.1455	1.10382	7890.34
33.2456	1.10592	7912.66
33.3457	1.10967	7935.69
33.4458	1.11281	7959.27
33.5459	1.11656	7980.86
33.646	1.11988	8003.51
33.7461	1.1229	8024.34
33.8462	1.12648	8048.37
33.9463	1.129052	8067.5
34.0464	1.13292	8090.66
34.1465	1.13707	8114.57
34.2466	1.13983	8138.34
34.34668	1.14263	8156.82
34.4468	1.14667	8183.07
34.5469	1.149267	8206.47
34.647	1.15104	8223.93
34.74707	1.155	8245.6
34.8472	1.15955	8270.56
34.9473	1.163733	8295.24
35.0474	1.1661	8317.61
35.1475	1.16894	8340.47
35.2476	1.17318	8360.46
35.3477	1.176393	8380.18
35.4478	1.17992	8403.96
35.5479	1.18306	8426.45
35.6479	1.186794	8449.37
35.748	1.18957	8472.6
35.8481	1.19273	8496.2
35.9482	1.19605	8517.9
36.04834	1.199609	8539.79
36.1484	1.20371	8562.14
36.2485	1.20514	8586.21
36.3486	1.20996	8609.11
36.44873	1.213342	8629.2
36.5488	1.217	8652.376
36.6489	1.22035	8675.64
36.749	1.22226	8698.832
36.8491	1.22675	8721.24
36.9492	1.22911	8742
37.0493	1.23297	8763.27
37.1494	1.23742	8787.39
37.2495	1.23971	8809.71
37.3496	1.2432	8832.94
37.4497	1.24675	8852.88
37.5498	1.25015	8875.57
37.6499	1.2526	8898.78
37.75	1.25678	8921.72
37.8501	1.26036	8944.49
37.9502	1.2636	8966.35
38.0503	1.26664	8987.99
38.1504	1.26975	9010.79
38.2505	1.27271	9032.626
38.3506	1.27633	9053.54
38.4507	1.28018	9075.5
38.5508	1.28312	9094.98
38.6509	1.28646	9120.09
38.751	1.29116	9141.19
38.8511	1.29407	9164.94
38.9512	1.29647	9184.63
39.05127	1.30004	9207.15
39.1514	1.30345	9230.78
39.2515	1.30658	9252.19
39.3516	1.31029	9274.27
39.45166	1.31273	9295.95
39.5518	1.31636	9317.72
39.6519	1.31997	9341.71
39.752	1.32351	9364.37
39.8521	1.32692	9389.02
39.9521	1.3296	9410.44
40.0522	1.33306	9430.87
40.1523	1.337	9454.67
40.2524	1.33874	9473.52
40.3525	1.34319	9498.06
40.4526	1.34727	9521.96
40.5527	1.35015	9544.22
40.6528	1.35373	9562.19
40.75293	1.35707	9585.877
40.853	1.35979	9611.28
40.9531	1.36303	9632.49
41.0532	1.36602	9653.75
41.15332	1.37046	9677.32
41.2534	1.37399	9697.22
41.3535	1.37683	9719.29
41.4536	1.37976	9740.752
41.5537	1.38252	9764.91
41.6538	1.38665	9786.4
41.7539	1.390323	9808.94
41.854	1.39385	9828.79
41.9541	1.39596	9851.05
42.0542	1.3999	9872.07
42.1543	1.40361	9895.66
42.2544	1.406607	9917.21
42.3545	1.41048	9940.2
42.45459	1.41311	9960.68
42.5547	1.41689	9983.38
42.6548	1.42082	9999.37
42.7549	1.42373	10028.352
42.85498	1.42663	10046.129
42.9551	1.4298	10069.689
43.0552	1.43298	10093.387
43.1553	1.435706	10115.711
43.2554	1.44016	10139.275
43.3555	1.44369	10161.05
43.4556	1.4461	10182.209
43.5557	1.44995	10203.48
43.6558	1.45372	10227.271
43.7559	1.45699	10248.858
43.856	1.46032	10269.715
43.9561	1.46365	10290.395
44.0562	1.466167	10312.618
44.15625	1.46971	10333.532
44.2563	1.47436	10355.58
44.3564	1.4768	10378.651
44.4565	1.47978	10400.593
44.5566	1.48322	10421.333
44.6567	1.48613	10442.033
44.7568	1.49024	10466.843
44.8569	1.49464	10489.386
44.957	1.49622	10504.854
45.0571	1.4998	10529.255
45.1572	1.50351	10551.111
45.2573	1.50544	10569.911
45.3574	1.50955	10592.918
45.45752	1.51319	10615.174
45.5576	1.51642	10640.143
45.6577	1.52035	10661.079
45.7578	1.52395	10683.057
45.85791	1.526767	10702.68
45.958	1.53074	10724.866
46.0581	1.53344	10748.526
46.1582	1.53615	10769.109
46.2583	1.54068	10788.074
46.3584	1.543501	10808.044
46.4585	1.54676	10831.956
46.5586	1.550436	10853.122
46.6587	1.55231	10874.988
46.7588	1.55714	10897.709
46.8589	1.56	10921.588
46.959	1.56363	10942.978
47.0591	1.56589	10963.318
47.15918	1.57028	10985.827
47.2593	1.57293	11007.438
47.3594	1.57671	11030.131
47.4595	1.58046	11050.191
47.55957	1.58327	11071.878
47.6597	1.5869	11094.351
47.7598	1.58999	11115.83
47.8599	1.59378	11137.896
47.96	1.59645	11158.845
48.0601	1.59971	11179.519
48.1602	1.605016	11200.888
48.2603	1.60646	11222.304
48.3604	1.61076	11244.902
48.4604	1.613012	11266.959
48.5605	1.6174	11287.268
48.6606	1.61988	11306.998
48.7607	1.62282	11330.259
48.86084	1.62579	11352.084
48.9609	1.62948	11374.74
49.061	1.63133	11395.397
49.1611	1.635617	11416.88
49.26123	1.64073	11437.793
49.3613	1.64343	11460.332
49.4614	1.64716	11484.571
49.5615	1.6497	11505.321
49.6616	1.652649	11527.003
49.7617	1.65652	11550.086
49.8618	1.66054	11571.813
49.9619	1.66326	11596.252
50.062	1.66674	11617.451
50.1621	1.66956	11637.106
50.2622	1.673004	11659.338
50.3623	1.6772	11680.507
50.4624	1.680553	11703.011
50.5625	1.68334	11721.97
50.6626	1.68758	11742.903
50.7627	1.6906	11765.359
50.8628	1.69305	11786.095
50.9629	1.696834	11808.636
51.063	1.70012	11828.586
51.1631	1.70291	11851.291
51.2632	1.706782	11874.466
51.3633	1.71005	11897.086
51.4634	1.71427	11919.073
51.5635	1.71586	11938.301
51.6636	1.71991	11958.469
51.7637	1.723814	11978.453
51.86377	1.72751	11999.004
51.9639	1.72952	12021.938
52.064	1.73368	12043.814
52.1641	1.73704	12067.65
52.26416	1.74024	12088.976
52.3643	1.7429	12112.718
52.4644	1.7475	12131.566
52.5645	1.750344	12153.29
52.6646	1.75287	12176.036
52.7646	1.75901	12198.384
52.8647	1.76142	12219.267
52.9648	1.76251	12235.326
53.0649	1.76681	12259.046
53.165	1.770404	12282.898
53.2651	1.77373	12302.051
53.3652	1.77702	12324.063
53.4653	1.78046	12346.41
53.56543	1.78375	12366.582
53.6655	1.78687	12389.402
53.7656	1.78988	12409.245
53.8657	1.79311	12430.444
53.96582	1.79684	12449.879
54.0659	1.80008	12471.471
54.166	1.80354	12493.305
54.2661	1.80737	12514.799
54.3662	1.81067	12535.33
54.4663	1.81338	12557.588
54.5664	1.81746	12579.026
54.6665	1.82108	12598.384
54.7666	1.82285	12618.645
54.8667	1.82704	12643.825
54.9668	1.83089	12664.755
55.0669	1.832965	12688.021
55.167	1.83733	12709.961
55.26709	1.84129	12728.334
55.3672	1.84366	12747.67
55.4673	1.84672	12768.874
55.5674	1.84997	12792.865
55.66748	1.85344	12814.154
55.7676	1.85647	12834.065
55.8677	1.85942	12856.76
55.9678	1.86453	12876.832
56.0679	1.86671	12896.749
56.168	1.86998	12920.67
56.2681	1.874	12942.629
56.3682	1.87753	12964.823
56.4683	1.88007	12986.297
56.5684	1.88315	13008.008
56.6685	1.88624	13027.063
56.7686	1.89052	13050.791
56.8687	1.89379	13073.39
56.96875	1.89677	13094.562
57.0688	1.90055	13115.052
57.1689	1.90405	13133.342
57.269	1.90706	13152.673
57.3691	1.911	13174.564
57.4692	1.91378	13197.326
57.5693	1.91864	13220.208
57.6694	1.92204	13241.655
57.7695	1.92427	13262.268
57.8696	1.92821	13284.637
57.9697	1.9301	13305.25
58.0698	1.93382	13327.656
58.1699	1.93676	13345.579
58.27002	1.94083	13368.647
58.3701	1.94429	13389.655
58.4702	1.94711	13411.222
58.5703	1.95031	13433.317
58.67041	1.95417	13458.154
58.7705	1.95775	13479.214
58.8706	1.96074	13500.737
58.9707	1.965335	13519.795
59.0708	1.968652	13542.169
59.1709	1.971	13559.957
59.271	1.97458	13582.583
59.3711	1.97729	13602.95
59.4712	1.98142	13623.312
59.5713	1.98487	13646.185
59.6714	1.98713	13666.56
59.7715	1.9915	13690.979
59.8716	1.99362	13711.174
59.97168	1.9996	13733.365
60.0718	2.00115	13753.604
60.1719	2.00523	13775.636
60.272	2.00863	13798.529
60.37207	2.01184	13818.327
60.4722	2.01472	13841.461
60.5723	2.01864	13861.259
60.6724	2.02266	13883.603
60.7725	2.02479	13903.339
60.8726	2.02813	13923.6
60.9727	2.03171	13943.64
61.0728	2.0345	13965.749
61.1729	2.03797	13987.393
61.2729	2.04158	14009.045
61.373	2.04613	14032.185
61.4731	2.04844	14055.078
61.5732	2.05354	14075.692
61.67334	2.05507	14096.346
61.7734	2.058938	14114.529
61.8735	2.06191	14132.408
61.9736	2.064517	14155.161
62.07373	2.0683	14176.998
62.1738	2.07114	14197.109
62.2739	2.07433	14215.138
62.374	2.07865	14235.905
62.4741	2.08105	14258.704
62.5742	2.084	14281.311
62.6743	2.08807	14302.343
62.7744	2.09149	14322.971
62.8745	2.09509	14343.886
62.9746	2.09824	14364.914
63.0747	2.10136	14385.021
63.1748	2.10386	14406.645
63.2749	2.1071	14426.818
63.375	2.11104	14446.904
63.4751	2.1145	14466.939
63.5752	2.11675	14488.887
63.6753	2.12066	14512.278
63.7754	2.12548	14530.959
63.8755	2.12771	14552.391
63.9756	2.13171	14574.605
64.0757	2.13457	14594.61
64.1758	2.13739	14616.47
64.2759	2.14048	14638.073
64.376	2.144599	14658.699
64.4761	2.14825	14679.26
64.5762	2.15174	14698.987
64.67627	2.15446	14720.59
64.7764	2.15763	14743.112
64.8765	2.16101	14762.209
64.9766	2.16426	14786.445
65.07666	2.16752	14806.723
65.1768	2.17049	14827.099
65.2769	2.17415	14847.294
65.377	2.17846	14865.85
65.4771	2.18204	14885.417
65.5771	2.18464	14907.489
65.6772	2.18692	14925.216
65.7773	2.19039	14945.93
65.8774	2.1937	14968.692
65.9775	2.1979	14988.453
66.0776	2.20294	15011.277
66.1777	2.20389	15032.173
66.2778	2.20807	15051.589
66.37793	2.211374	15075.161
66.478	2.21387	15097.504
66.5781	2.217844	15116.444
66.6782	2.22118	15137.17
66.77832	2.22431	15154.744
66.8784	2.22777	15174.751
66.9785	2.23077	15195.363
67.0786	2.23464	15215.889
67.1787	2.23781	15237.595
67.2788	2.24135	15259.506
67.3789	2.24508	15279.654
67.479	2.24849	15298.611
67.5791	2.25124	15319.455
67.6792	2.25404	15340.704
67.7793	2.2574	15365.348
67.8794	2.26072	15387.695
67.9795	2.263546	15408.216
68.07959	2.26878	15427.151
68.1797	2.27097	15446.302
68.2798	2.27415	15468.477
68.3799	2.27732	15487.229
68.47998	2.28126	15510.635
68.5801	2.28504	15531.913
68.6802	2.28747	15550.076
68.7803	2.29091	15572.164
68.8804	2.29508	15593.448
68.9805	2.29756	15613.312
69.0806	2.30183	15635.248
69.1807	2.30476	15653.485
69.2808	2.30723	15676.272
69.3809	2.31118	15695.51
69.481	2.31389	15716.597
69.5811	2.31817	15738.607
69.6812	2.32176	15760.641
69.78125	2.32405	15778.819
69.8813	2.32743	15798.128
69.9814	2.330646	15819.246
70.0815	2.33477	15840.887
70.1816	2.33721	15860.588
70.2817	2.34048	15881.37
70.3818	2.34475	15900.725
70.4819	2.34689	15922.152
70.582	2.35034	15941.743
70.6821	2.3542	15964.682
70.7822	2.35832	15988.41
70.8823	2.36203	16007.538
70.9824	2.36408	16029.297
71.08252	2.36844	16048.768
71.1826	2.37159	16068.588
71.2827	2.37412	16089.144
71.3828	2.37711	16111.522
71.48291	2.381125	16133.669
71.583	2.38494	16157.024
71.6831	2.38703	16175.415
71.7832	2.39114	16194.164
71.8833	2.39439	16213.241
71.9834	2.39818	16232.122
72.0835	2.40096	16254.349
72.1836	2.40472	16275.705
72.2837	2.4079	16295.446
72.3838	2.41074	16316.771
72.4839	2.41404	16336.392
72.584	2.41772	16356.501
72.6841	2.42107	16376.809
72.78418	2.42422	16396.945
72.8843	2.42796	16419.033
72.9844	2.43138	16439.504
73.0845	2.43371	16461.711
73.18457	2.43754	16478.98
73.2847	2.44147	16501.014
73.3848	2.44494	16525.574
73.4849	2.447906	16543.695
73.585	2.45102	16563.285
73.6851	2.454689	16583.471
73.7852	2.457902	16606.625
73.8853	2.461201	16626.379
73.9854	2.46489	16646.404
74.0854	2.46796	16667.518
74.1855	2.47031	16684.771
74.2856	2.47461	16706.623
74.3857	2.47716	16727.467
74.48584	2.48082	16747.6
74.5859	2.48401	16766.369
74.686	2.48799	16786.604
74.7861	2.49048	16807.332
74.88623	2.49433	16828.928
74.9863	2.49773	16849.537
75.0864	2.50194	16872.766
75.1865	2.5041	16892.195
75.2866	2.50766	16911.479
75.3867	2.51024	16934.672
75.4868	2.51406	16953.34
75.5869	2.51736	16973.838
75.687	2.5214	16995.297
75.7871	2.52447	17017.264
75.8872	2.52735	17037.297
75.9873	2.53175	17057.377
76.0874	2.53478	17076.922
76.1875	2.53688	17096.566
76.2876	2.54193	17116.881
76.3877	2.54521	17134.957
76.4878	2.54767	17155.57
76.5879	2.55103	17177.508
76.688	2.55389	17198.051
76.7881	2.55706	17218.078
76.8882	2.56146	17238.854
76.9883	2.56464	17257.699
77.0884	2.56753	17280.857
77.1885	2.57146	17300.574
77.2886	2.573806	17320.129
77.3887	2.57838	17340.904
77.48877	2.58133	17359.129
77.5889	2.584672	17378.691
77.689	2.58815	17399.557
77.7891	2.59072	17419.732
77.88916	2.59474	17439.234
77.9893	2.5986	17461.885
78.0894	2.60052	17480.238
78.1895	2.60568	17504.953
78.2896	2.60812	17524.246
78.3896	2.61104	17544.248
78.4897	2.61441	17563.344
78.5898	2.61786	17585.021
78.6899	2.621454	17605.35
78.79	2.62482	17622.496
78.8901	2.62771	17644.893
78.9902	2.6311	17664.256
79.0903	2.635324	17682.664
79.19043	2.6385	17702.611
79.2905	2.64075	17719.828
79.3906	2.64506	17739.828
79.4907	2.64826	17759.189
79.59082	2.65142	17782.838
79.6909	2.65389	17801.156
79.791	2.65793	17819.594
79.8911	2.66145	17839.723
79.9912	2.66452	17861.338
80.0913	2.66778	17880.064
80.1914	2.66989	17901.943
80.2915	2.67479	17921.783
80.3916	2.67809	17941.844
80.4917	2.68111	17961.467
80.5918	2.68559	17980.324
80.6919	2.688	18002.32
80.792	2.69057	18023.717
80.89209	2.69446	18046.215
80.9922	2.6978	18065.99
81.0923	2.70148	18085.846
81.1924	2.70566	18106.189
81.29248	2.70779	18126.057
81.3926	2.71179	18144.682
81.4927	2.71434	18164.717
81.5928	2.71757	18184.727
81.6929	2.72067	18206.414
81.793	2.72549	18225.357
81.8931	2.72816	18246.262
81.9932	2.7313	18266.213
82.0933	2.73424	18284.912
82.1934	2.73767	18304.836
82.2935	2.74135	18326.063
82.3936	2.74499	18346.813
82.4937	2.74711	18366.207
82.59375	2.751091	18388.318
82.6938	2.75597	18407.67
82.7939	2.75857	18428.885
82.894	2.76098	18448.012
82.9941	2.76426	18467.365
83.0942	2.76771	18488.086
83.1943	2.77129	18507.773
83.2944	2.77516	18528.5
83.3945	2.77767	18549.383
83.4946	2.78223	18570.307
83.5947	2.78528	18589.008
83.6948	2.787581	18608.215
83.7949	2.791822	18629.574
83.89502	2.79444	18648.934
83.9951	2.79735	18670.143
84.0952	2.80178	18691.205
84.1953	2.80493	18710.541
84.29541	2.808	18731.516
84.3955	2.81198	18751.98
84.4956	2.81433	18771.035
84.5957	2.81793	18789.473
84.6958	2.82176	18808.227
84.7959	2.82462	18826.938
84.896	2.82816	18847.781
84.9961	2.83214	18868.098
85.0962	2.83477	18888.686
85.1963	2.83823	18906.879
85.2964	2.84071	18927.961
85.3965	2.84452	18945.846
85.4966	2.84781	18964.256
85.59668	2.85163	18985.836
85.6968	2.85467	19004.637
85.7969	2.85747	19024.611
85.897	2.86143	19044.289
85.99707	2.86461	19065.582
86.0972	2.86849	19084.334
86.1973	2.87038	19102.83
86.2974	2.87466	19123.547
86.3975	2.878788	19142.762
86.4976	2.88109	19162.783
86.5977	2.884388	19182.525
86.6978	2.88844	19202.645
86.7979	2.89162	19221.619
86.8979	2.894053	19240.379
86.998	2.89817	19260.791
87.0981	2.90133	19280.133
87.1982	2.90473	19299.244
87.29834	2.908	19320.729
87.3984	2.91121	19341.053
87.4985	2.91462	19358.725
87.5986	2.92008	19379.424
87.69873	2.922374	19399.877
87.7988	2.92446	19419.354
87.8989	2.92721	19439.955
87.999	2.93148	19460.287
88.0991	2.93541	19480.771
88.1992	2.9379	19501.379
88.2993	2.94142	19520.359
88.3994	2.94381	19540.377
88.4995	2.948174	19559.66
88.5996	2.95067	19578.553
88.6997	2.95506	19597.34
88.7998	2.95819	19617.182
88.8999	2.96123	19637.947
89	2.964133	19657.697
89.1001	2.96811	19680.344
89.2002	2.96996	19697.484
89.3003	2.97503	19717.877
89.4004	2.97883	19737.893
89.5005	2.98218	19756.188
89.6006	2.98476	19773.57
89.7007	2.98786	19794.631
89.8008	2.99153	19814.844
89.9009	2.9944	19833.832
90.001	2.99802	19854.859
90.1011	3.001231	19874.668
90.2012	3.00531	19893.104
90.30127	3.00803	19914.75
90.4014	3.01121	19931.736
90.5015	3.01533	19952.438
90.6016	3.01814	19973.068
90.70166	3.02153	19991.959
90.8018	3.02514	20013.463
90.9019	3.02853	20033.438
91.002	3.0316	20053.967
91.1021	3.03534	20072.447
91.2021	3.03829	20092.395
91.3022	3.04103	20112.172
91.4023	3.04393	20131.777
91.5024	3.04777	20150.488
91.6025	3.05159	20171.453
91.7026	3.05526	20191.748
91.8027	3.05913	20208.109
91.9028	3.06057	20227.182
92.00293	3.06442	20248.416
92.103	3.06847	20265.801
92.2031	3.071651	20285.566
92.3032	3.074512	20306.133
92.40332	3.07898	20327.512
92.5034	3.08153	20346.104
92.6035	3.08537	20367.689
92.7036	3.08878	20387.48
92.8037	3.09186	20405.568
92.9038	3.09429	20425.863
93.0039	3.09811	20446.34
93.104	3.101474	20463.752
93.2041	3.10492	20481.947
93.3042	3.1089	20499.65
93.4043	3.11216	20519.939
93.5044	3.11619	20537.818
93.6045	3.11799	20557.867
93.70459	3.12109	20575.764
93.8047	3.12585	20596.861
93.9048	3.12894	20616.164
94.0049	3.13139	20636.109
94.10498	3.13494	20654.461
94.2051	3.13824	20674.691
94.3052	3.14268	20693.338
94.4053	3.14553	20712.633
94.5054	3.14845	20732.006
94.6055	3.15182	20752.258
94.7056	3.1549	20771.17
94.8057	3.15889	20792.631
94.9058	3.16185	20808.566
95.0059	3.16474	20830.201
95.106	3.16818	20847.51
95.2061	3.171581	20866.203
95.3062	3.17518	20885.129
95.40625	3.17837	20902.887
95.5063	3.18201	20923.336
95.6064	3.186533	20940.352
95.7065	3.18765	20958.32
95.8066	3.1925	20980.381
95.9067	3.19506	20997.1
96.0068	3.20112	21028.156
96.1069	3.20274	21046.162
96.207	3.205961	21066.955
96.3071	3.20954	21086.072
96.4072	3.21292	21103.896
96.5073	3.21505	21117.635
96.6074	3.21977	21138.566
96.70752	3.222826	21155.328
96.8076	3.22592	21173.563
96.9077	3.229	21195.975
97.0078	3.2325	21214.463
97.10791	3.23551	21232.506
97.208	3.23892	21250.887
97.3081	3.24208	21269.711
97.4082	3.24599	21287.203
97.5083	3.24916	21309.191
97.6084	3.252852	21318.678
97.7085	3.25599	21343.73
97.8086	3.26103	21362.596
97.9087	3.263113	21378.559
98.0088	3.26669	21397.34
98.1089	3.27017	21415.881
98.209	3.27172	21431.766
98.3091	3.275454	21449.787
98.40918	3.28045	21467.832
98.5093	3.28274	21489.615
98.6094	3.28638	21509.354
98.7095	3.28873	21530.6
98.80957	3.29302	21548.611
98.9097	3.29548	21568.559
99.0098	3.299278	21586.48
99.1099	3.30252	21605.348
99.21	3.30571	21563.42
99.3101	3.30956	21568.631
99.4102	3.31284	21585.08
99.5103	3.316298	21598.855
99.6104	3.31899	21578.012
99.7104	3.32303	21591.602
99.8105	3.32627	21607.004
99.9106	3.3289	21618.896
100.011	3.33206	21631.229
100.111	3.33531	21647.174