File: dublin_poster_plots/Tensile Tests - Quenched Samples 20180604/BLPX-M1-Q030-03_20180604/specimen.dat
MTS793|MPT|ENU|1|2|.|/|:|1|0|0|A

Data Acquisition						Time:	72.2686	s	6/4/2018 3:45:31 PM
Time	MTS 4 Displacement 4	MTS 4 Force 4
s	mm	N
0.114746	-0.00132024	-61.05909
0.214844	0.00248253	-44.8184
0.314941	0.00486672	-23.4799
0.415039	0.00917315	-3.27984
0.515137	0.0135064	17.8328
0.615234	0.0160754	36.8726
0.715332	0.0188857	57.1832
0.81543	0.0225306	76.8263
0.915527	0.0259697	98.4518
1.015625	0.0287175	119.861
1.11572	0.0323743	141.735
1.21582	0.0356913	161.872
1.315918	0.0385165	182.383
1.41602	0.0427455	203.491
1.51611	0.0455856	222.698
1.61621	0.0495166	245.37
1.71631	0.0522435	267.881
1.81641	0.0554353	288.978
1.9165	0.0584632	309.106
2.0166	0.06326139	330.768
2.1167	0.06698668	348.596
2.2168	0.0677824	372.73
2.31689	0.0716984	394.762
2.41699	0.0756592	416.866
2.51709	0.0789344	436.604
2.61719	0.0823945	459.58
2.71729	0.0860572	478.417
2.81738	0.090003	502.439
2.91748	0.0910401	523.095
3.01758	0.0963479	547.985
3.11768	0.0997841	568.624
3.21777	0.101718	592.388
3.31787	0.105822	615.428
3.41797	0.108659	636.445
3.51807	0.111967	655.873
3.61816	0.11473	680.444
3.71826	0.119013	701.114
3.81836	0.121519	721.081
3.918457	0.1247853	743.57
4.01855	0.1288712	766.58
4.11865	0.132975	788.459
4.21875	0.135666	808.573
4.31885	0.138879	830.724
4.41895	0.14199	851.868
4.519043	0.144839	873.9
4.61914	0.148901	898.268
4.71924	0.152838	919.797
4.81934	0.155982	942.097
4.91943	0.158042	962.332
5.01953	0.16222	983.037
5.11963	0.165287	1003.31
5.21973	0.167999	1024.189
5.31982	0.1717329	1045.1
5.41992	0.175962	1065.1
5.52002	0.179282	1085.64
5.62012	0.183406	1109.42
5.72021	0.1854986	1129.5
5.82031	0.188598	1148.33
5.92041	0.1917094	1171.45
6.02051	0.195649	1192.73
6.12061	0.199035	1213.01
6.2207	0.202662	1237.25
6.3208	0.205874	1258.01
6.4209	0.209296	1279.82
6.521	0.212392	1299.21
6.62109	0.216448	1320.72
6.72119	0.218499	1341.17
6.82129	0.222087	1363.33
6.92139	0.225642	1384.94
7.02148	0.229022	1404.33
7.121582	0.233212	1426.57
7.22168	0.234997	1448.41
7.32178	0.239971	1469.82
7.421875	0.242227	1491.71
7.52197	0.245455	1514.12
7.62207	0.249377	1533.1
7.722168	0.25149	1553.53
7.82227	0.255892	1574.19
7.92236	0.258744	1593.45
8.02246	0.261974	1614.26
8.12256	0.266188	1632.3
8.22266	0.268567	1656.204
8.32275	0.272226	1676.34
8.42285	0.276282	1699.83
8.52295	0.279751	1716.47
8.62305	0.28156	1737.78
8.72314	0.286937	1757.57
8.82324	0.28947	1778.934
8.92334	0.292549	1797.12
9.02344	0.295761	1817.55
9.12354	0.29934	1836.92
9.22363	0.302196	1854.61
9.32373	0.305977	1874.46
9.42383	0.309178	1897.77
9.52393	0.312671	1916.72
9.62402	0.31589	1938.04
9.72412	0.3197819	1961.42
9.82422	0.323707	1981.46
9.92432	0.326908	1998.63
10.0244	0.330761	2016.36
10.1245	0.332481	2033.962
10.2246	0.3354758	2051.65
10.3247	0.339681	2073.39
10.4248	0.343108	2093.66
10.5249	0.346583	2113.27
10.625	0.349221	2130.55
10.7251	0.353369	2153.59
10.8252	0.355992	2173.3
10.9253	0.358644	2195.52
11.0254	0.362521	2218.656
11.1255	0.36625	2242.27
11.2256	0.370577	2262.37
11.3257	0.374016	2282.02
11.4258	0.376457	2301.52
11.5259	0.379089	2319.65
11.626	0.38439	2339.9
11.7261	0.386566	2365.07
11.8262	0.39176	2389.98
11.92627	0.395715	2417.29
12.0264	0.401583	2451.21
12.1265	0.402996	2467.31
12.2266	0.408152	2488.92
12.32666	0.410774	2508.99
12.4268	0.414559	2529.46
12.5269	0.417313	2548.07
12.627	0.421059	2569.02
12.7271	0.423661	2587.22
12.8271	0.427854	2605.31
12.9272	0.430122	2624.52
13.0273	0.433061	2643.1
13.1274	0.437444	2664.66
13.2275	0.440764	2683.92
13.3276	0.444403	2701.37
13.4277	0.44646	2713.79
13.5278	0.449035	2732.82
13.62793	0.453857	2752.86
13.728	0.455454	2772.75
13.8281	0.45945	2793.39
13.9282	0.464043	2813.24
14.02832	0.465685	2832.55
14.1284	0.469556	2852.88
14.2285	0.473139	2872.86
14.3286	0.475749	2892.24
14.4287	0.4792273	2912.05
14.5288	0.483054	2931.58
14.6289	0.485793	2950.81
14.729	0.488889	2966.83
14.8291	0.492916	2985.17
14.9292	0.495565	3004.36
15.0293	0.498402	3024.15
15.1294	0.50219	3048.53
15.2295	0.506213	3067.35
15.32959	0.507817	3083.62
15.4297	0.511912	3102.73
15.5298	0.516242	3122.48
15.6299	0.518176	3141.97
15.72998	0.521719	3162.75
15.8301	0.52599	3183.69
15.9302	0.528795	3203.79
16.0303	0.532436	3224.01
16.1304	0.535059	3244.4
16.2305	0.538328	3263.22
16.3306	0.5426228	3282.665
16.4307	0.545281	3306.35
16.5308	0.547776	3323.33
16.6309	0.551441	3343.15
16.731	0.555304	3362.708
16.8311	0.55823	3383.762
16.9312	0.560972	3402.85
17.03125	0.565431	3425.08
17.1313	0.568584	3445.656
17.2314	0.571278	3464.27
17.3315	0.574011	3484.84
17.4316	0.57787	3504.38
17.5317	0.581717	3523.929
17.6318	0.58504	3544.76
17.7319	0.587922	3564.22
17.832	0.590876	3584.44
17.9321	0.59458	3603.48
18.0322	0.597504	3621.209
18.1323	0.602251	3641.47
18.2324	0.605154	3661.21
18.33252	0.608847	3681.75
18.4326	0.611666	3701.26
18.5327	0.614679	3720.45
18.6328	0.617951	3741.5
18.73291	0.621086	3759.15
18.833	0.625125	3778.74
18.9331	0.627464	3801.98
19.0332	0.630739	3822.51
19.1333	0.634339	3839.08
19.2334	0.638607	3862.46
19.3335	0.641742	3882.73
19.4336	0.645331	3900.63
19.5337	0.6478399	3919.55
19.6338	0.651789	3939.36
19.7339	0.6549865	3959.55
19.834	0.658035	3980.22
19.9341	0.660542	3997.49
20.03418	0.664613	4017.74
20.1343	0.6676048	4037.06
20.2344	0.67046	4057.51
20.3345	0.674596	4079.39
20.43457	0.676626	4098.64
20.5347	0.68194	4116.88
20.6348	0.684419	4138.77
20.7349	0.688612	4157.1
20.835	0.69153	4175.79
20.9351	0.694874	4194.56
21.0352	0.697216	4213.74
21.1353	0.70048	4235.54
21.2354	0.704265	4255.45
21.3354	0.707728	4274.79
21.4355	0.711316	4294.96
21.5356	0.713867	4313.02
21.6357	0.718036	4335.54
21.73584	0.7217437	4358.14
21.8359	0.724852	4378.54
21.936	0.727522	4396.38
22.0361	0.730845	4417.15
22.13623	0.7346034	4438.8
22.2363	0.737599	4458.19
22.3364	0.742209	4477.39
22.4365	0.743973	4495.16
22.5366	0.748476	4514.9
22.6367	0.751364	4537.76
22.7368	0.754789	4557.59
22.8369	0.758803	4577.56
22.937	0.761297	4598.73
23.0371	0.764582	4620.31
23.1372	0.7689	4638.96
23.2373	0.7712543	4655.28
23.3374	0.775188	4676.68
23.4375	0.778008	4695.957
23.5376	0.781754	4718.66
23.6377	0.785232	4739.02
23.7378	0.788194	4758.99
23.8379	0.791553	4779.3
23.938	0.795385	4800.97
24.0381	0.798315	4820.84
24.1382	0.80218	4842.59
24.2383	0.805187	4859.34
24.3384	0.808427	4880.03
24.4385	0.811034	4899.18
24.5386	0.815287	4921.14
24.6387	0.818315	4941.3
24.73877	0.822124	4962.28
24.8389	0.82486	4980.34
24.939	0.828025	4998.62
25.0391	0.83116	5017.17
25.13916	0.835297	5037.54
25.2393	0.838563	5059.09
25.3394	0.841463	5078.63
25.4395	0.845894	5100.22
25.5396	0.847515	5115.748
25.6396	0.852308	5135.26
25.7397	0.855178	5154.95
25.8398	0.858563	5174.94
25.9399	0.861782	5195.65
26.04	0.865063	5219.186
26.1401	0.867474	5238.27
26.2402	0.872272	5260.88
26.3403	0.874403	5281.26
26.44043	0.87862	5303.13
26.5405	0.882992	5323.56
26.6406	0.88405	5342.644
26.7407	0.888586	5365.59
26.84082	0.892806	5384.49
26.9409	0.895157	5403.48
27.041	0.898618	5424.1
27.1411	0.901181	5447.78
27.2412	0.904813	5465.91
27.3413	0.908983	5487.27
27.4414	0.911677	5508.61
27.5415	0.91491	5528.64
27.6416	0.91925	5547.56
27.7417	0.921863	5573.88
27.8418	0.925833	5592.769
27.9419	0.928551	5610.71
28.042	0.931478	5632.314
28.14209	0.934753	5650.99
28.2422	0.937751	5670.71
28.3423	0.941876	5689.89
28.4424	0.944728	5710.07
28.54248	0.948277	5731.77
28.6426	0.951424	5751.95
28.7427	0.954661	5771.59
28.8428	0.958982	5791.356
28.9429	0.961211	5809.98
29.043	0.964841	5829.34
29.1431	0.9682864	5849.12
29.2432	0.972	5869.6
29.3433	0.974533	5891.06
29.4434	0.978798	5914.36
29.5435	0.9811461	5932.98
29.6436	0.9842813	5954.42
29.7437	0.988168	5974.82
29.84375	0.990996	5994.55
29.9438	0.994432	6013.06
30.0439	0.998536	6036.854
30.144	1.00139	6056.147
30.2441	1.00449	6076.168
30.3442	1.00784	6096.396
30.4443	1.01049	6119.01
30.5444	1.01526	6143.53
30.6445	1.01836	6162.03
30.7446	1.02128	6180.3
30.8447	1.02403	6200.355
30.9448	1.02801	6221.34
31.0449	1.03129	6243.7
31.14502	1.03517	6265.73
31.2451	1.03834	6282.94
31.3452	1.04179	6302.74
31.4453	1.04552	6323.3
31.54541	1.04803	6344.937
31.6455	1.05291	6365.32
31.7456	1.05523	6386.39
31.8457	1.05906	6407.44
31.9458	1.06223	6428.3
32.0459	1.06536	6449.91
32.146	1.06807	6470.78
32.2461	1.07219	6491.85
32.3462	1.07515	6510.51
32.4463	1.07872	6531.08
32.5464	1.08104	6550.98
32.6465	1.08601	6572.83
32.7466	1.08835	6595.74
32.84668	1.0918	6615.374
32.9468	1.09525	6635.04
33.0469	1.09821	6656.11
33.147	1.101622	6679.12
33.24707	1.10507	6700.29
33.3472	1.10926	6719.33
33.4473	1.11256	6742.11
33.5474	1.115787	6762.32
33.6475	1.11793	6780.415
33.7476	1.12179	6800.94
33.8477	1.12595	6820.48
33.9478	1.12878	6841.252
34.0479	1.132068	6863.88
34.1479	1.13665	6882.99
34.248	1.138863	6901.3
34.3481	1.14159	6922.66
34.4482	1.14523	6943.49
34.54834	1.14849	6967.06
34.6484	1.15277	6988.22
34.7485	1.15532	7007.291
34.8486	1.15948	7029.16
34.94873	1.16261	7049.26
35.0488	1.16607	7069.24
35.1489	1.17009	7088.68
35.249	1.17312	7111.74
35.3491	1.17615	7133.01
35.4492	1.17863	7153.45
35.5493	1.18162	7171.65
35.6494	1.18524	7190.21
35.7495	1.18955	7211.937
35.8496	1.193735	7234.9
35.9497	1.19609	7257.1
36.0498	1.19908	7278.33
36.1499	1.20185	7295.71
36.25	1.20543	7316.95
36.3501	1.20941	7337.02
36.4502	1.21208	7355.52
36.5503	1.21525	7377.87
36.6504	1.218915	7396.57
36.7505	1.22228	7417.65
36.8506	1.22562	7435.66
36.9507	1.22881	7458.47
37.0508	1.23236	7480.62
37.1509	1.23522	7499.72
37.251	1.23859	7521.81
37.3511	1.24277	7541.55
37.4512	1.24568	7558.7
37.55127	1.24826	7580.84
37.6514	1.2522	7600.12
37.7515	1.25506	7623.48
37.8516	1.25922	7644.44
37.95166	1.2619	7665.72
38.0518	1.26584	7685.96
38.1519	1.26918	7705.22
38.252	1.27192	7726.04
38.3521	1.27558	7746.417
38.4521	1.27869	7767.01
38.5522	1.28265	7787
38.6523	1.28513	7807.439
38.7524	1.28926	7828.67
38.8525	1.29253	7848.88
38.9526	1.29435	7868.13
39.0527	1.29851	7885
39.1528	1.30227	7905.64
39.25293	1.30587	7928.29
39.353	1.307556	7946.59
39.4531	1.31217	7970.27
39.5532	1.31551	7992.03
39.65332	1.31888	8012.59
39.7534	1.322493	8034.31
39.8535	1.325357	8055.67
39.9536	1.32908	8075.03
40.0537	1.33192	8095.709
40.1538	1.33567	8114.53
40.2539	1.33837	8137.438
40.354	1.34268	8157.7
40.4541	1.345101	8174.69
40.5542	1.34902	8196.918
40.6543	1.35197	8221.53
40.7544	1.35467	8240.19
40.8545	1.359272	8263.56
40.95459	1.3613	8281.792
41.0547	1.36532	8301.7
41.1548	1.36932	8322.31
41.2549	1.3716	8341.61
41.35498	1.37464	8362.4
41.4551	1.37851	8383.15
41.5552	1.381737	8404.17
41.6553	1.38563	8421.75
41.7554	1.38843	8444.69
41.8555	1.391691	8464.43
41.9556	1.39483	8485.99
42.0557	1.39796	8507.39
42.1558	1.40193	8527.68
42.2559	1.40498	8549.91
42.356	1.40941	8569.95
42.4561	1.41163	8589
42.5562	1.415202	8608.56
42.65625	1.41966	8632.64
42.7563	1.421997	8651.22
42.8564	1.42461	8670.97
42.9565	1.4284	8691.96
43.0566	1.43124	8711.45
43.1567	1.4358	8732.96
43.2568	1.439628	8756.042
43.3569	1.44257	8777.68
43.457	1.44567	8798.89
43.5571	1.44907	8819.81
43.6572	1.45266	8839.96
43.7573	1.45614	8858.93
43.8574	1.45805	8879.832
43.95752	1.46281	8899.75
44.0576	1.46668	8921.44
44.1577	1.46835	8939.81
44.2578	1.47261	8956.46
44.35791	1.47615	8978.082
44.458	1.47883	8996.15
44.5581	1.48129	9017.37
44.6582	1.48599	9035.7
44.7583	1.48851	9058.49
44.8584	1.49183	9078.71
44.9585	1.49513	9101.74
45.0586	1.49832	9121.21
45.1587	1.50261	9142.41
45.2588	1.5051	9161.87
45.3589	1.509	9185.25
45.459	1.51205	9206.65
45.5591	1.516071	9226.48
45.65918	1.51907	9245.8
45.7593	1.5219	9265.41
45.8594	1.52443	9285.707
45.9595	1.52946	9308.73
46.05957	1.53338	9331.22
46.1597	1.5355	9349.39
46.2598	1.53948	9368.6
46.3599	1.54228	9391.27
46.46	1.54562	9412.83
46.5601	1.54906	9434.84
46.6602	1.55378	9455.04
46.7603	1.555711	9476.16
46.8604	1.560089	9495.12
46.9604	1.56277	9512.59
47.0605	1.56532	9531.86
47.1606	1.568681	9551.42
47.2607	1.57243	9573.94
47.36084	1.5754	9591.16
47.4609	1.57888	9610.83
47.561	1.58266	9633.02
47.6611	1.58548	9652.72
47.76123	1.58971	9673.92
47.8613	1.59253	9691.32
47.9614	1.59608	9710.95
48.0615	1.5989	9730.8
48.1616	1.60203	9751.22
48.2617	1.60615	9767.51
48.3618	1.609239	9788.69
48.4619	1.61198	9806.41
48.562	1.61565	9828.1
48.6621	1.61898	9851.17
48.7622	1.62261	9872.69
48.8623	1.62625	9891.748
48.9624	1.6297	9913.02
49.0625	1.63262	9934.248
49.1626	1.63656	9954.333
49.2627	1.63937	9974.53
49.3628	1.64381	9983.95
49.4629	1.64673	10004.142
49.563	1.64983	10024.402
49.6631	1.652649	10044.089
49.7632	1.65583	10064.682
49.8633	1.659438	10087.006
49.9634	1.66395	10098.707
50.0635	1.66644	10118.948
50.1636	1.66942	10139.656
50.2637	1.67297	10162.105
50.36377	1.6774	10181.195
50.4639	1.68021	10200.25
50.564	1.682815	10218.882
50.6641	1.68618	10243.044
50.76416	1.68881	10264.653
50.8643	1.69398	10284.411
50.9644	1.69617	10289.229
51.0645	1.69901	10306.629
51.1646	1.70393	10328.938
51.2646	1.707232	10349.759
51.3647	1.70991	10372.023
51.4648	1.712507	10389.544
51.5649	1.71625	10412.18
51.665	1.719141	10430.334
51.7651	1.723066	10449.711
51.8652	1.72607	10470.59
51.9653	1.72821	10490.695
52.06543	1.73285	10510.396
52.1655	1.73587	10531.203
52.2656	1.7396	10549.618
52.3657	1.74319	10570.977
52.46582	1.746586	10589.427
52.5659	1.74968	10611.207
52.666	1.75275	10630.061
52.7661	1.7566	10652.751
52.8662	1.75896	10672.745
52.9663	1.76252	10694.351
53.0664	1.76627	10712.585
53.1665	1.7699	10733.119
53.2666	1.77316	10741.341
53.3667	1.77558	10757.969
53.4668	1.77816	10776.872
53.5669	1.78459	10798.5
53.667	1.78595	10815.783
53.76709	1.78995	10837.364
53.8672	1.793	10856.458
53.9673	1.79611	10862.361
54.0674	1.79955	10880.427
54.16748	1.80293	10903.17
54.2676	1.80571	10925.259
54.3677	1.81012	10945.193
54.4678	1.81289	10964.681
54.5679	1.8165	10985.855
54.668	1.81997	11003.419
54.7681	1.82264	11023.354
54.8682	1.826939	11042.952
54.9683	1.82866	11062.543
55.0684	1.83296	11083.588
55.1685	1.837334	11104.476
55.2686	1.83986	11123.429
55.3687	1.84274	11143.072
55.46875	1.8462	11163.164
55.5688	1.84972	11184.786
55.6689	1.85367	11205.924
55.769	1.85548	11222.582
55.8691	1.85972	11245.642
55.9692	1.86315	11266.8
56.0693	1.86599	11284.499
56.1694	1.86911	11307.447
56.2695	1.87359	11329.107
56.3696	1.876846	11349.369
56.4697	1.8793	11369.119
56.5698	1.88311	11387.869
56.6699	1.88625	11406.999
56.77002	1.88971	11428.823
56.8701	1.89219	11445.895
56.9702	1.89592	11465.954
57.0703	1.90039	11483.44
57.17041	1.90234	11504.483
57.2705	1.906088	11523.561
57.3706	1.9096	11543.798
57.4707	1.91264	11561.406
57.5708	1.91602	11582.575
57.6709	1.92015	11603.823
57.771	1.92324	11624.396
57.8711	1.92698	11646.098
57.9712	1.92942	11664.308
58.0713	1.932615	11685.394
58.1714	1.93588	11707.353
58.2715	1.94026	11725.965
58.3716	1.94259	11746.343
58.47168	1.94645	11766.878
58.5718	1.94907	11785.935
58.6719	1.9527	11800.222
58.772	1.95622	11820.556
58.87207	1.95937	11843.305
58.9722	1.96261	11865.448
59.0723	1.96645	11883.64
59.1724	1.97017	11904.414
59.2725	1.97326	11922.612
59.3726	1.97676	11939.752
59.4727	1.97979	11956.611
59.5728	1.98215	11976.562
59.6729	1.98687	11996.478
59.7729	1.98998	12015.43
59.873	1.99295	12037.027
59.9731	1.99597	12015.85
60.0732	1.99996	12035.371
60.17334	2.003324	12032.057
60.2734	2.00788	11993.415
60.3735	2.0091	12012.703
60.4736	2.0131	12030.195
60.57373	2.01642	12048.798
60.6738	2.019134	12066.851
60.7739	2.02262	12087.873
60.874	2.02694	12108.502
60.9741	2.03102	12125.813
61.0742	2.03355	12145.314
61.1743	2.0379	12165.225
61.2744	2.04003	12185.029
61.3745	2.0422	12206.198
61.4746	2.04586	12225.581
61.5747	2.04994	12247.766
61.6748	2.053231	12269.052
61.7749	2.05637	12288.89
61.875	2.06011	12303.091
61.9751	2.06142	12325.697
62.0752	2.066493	12345.789
62.1753	2.06993	12365.443
62.2754	2.07355	12384.406
62.3755	2.07682	12405.053
62.4756	2.08015	12424.784
62.5757	2.08351	12446.095
62.6758	2.08679	12463.766
62.7759	2.0882	12483.143
62.876	2.09338	12504.728
62.9761	2.09609	12526.045
63.0762	2.09973	12550.17
63.17627	2.10294	12566.391
63.2764	2.1061	12586.757
63.3765	2.10983	12604.783
63.4766	2.11212	12618.323
63.57666	2.11628	12641.672
63.6768	2.11952	12660.049
63.7769	2.12273	12680.704
63.877	2.12514	12699.507
63.9771	2.13063	12718.666
64.0771	2.13345	12738.968
64.1772	2.13634	12760.906
64.2773	2.139616	12779.836
64.3774	2.14289	12801.344
64.4775	2.14648	12818.471
64.5776	2.1494	12837.631
64.6777	2.153	12857.931
64.7778	2.156496	12879.664
64.87793	2.15987	12897.646
64.978	2.16214	12914.413
65.0781	2.16653	12935.02
65.1782	2.1702	12954.861
65.27832	2.17366	12974.799
65.3784	2.17636	12992.527
65.4785	2.17944	13010.969
65.5786	2.18278	13022.348
65.6787	2.18734	13042.264
65.7788	2.18989	13059.711
65.8789	2.19328	13079.521
65.979	2.1965	13099.63
66.0791	2.20096	13118.522
66.1792	2.20386	13136.479
66.2793	2.20609	13154.814
66.3794	2.21027	13173.692
66.4795	2.21321	13194.907
66.57959	2.21735	13215.116
66.6797	2.22097	13236.207
66.7798	2.223423	13254.991
66.8799	2.22654	13273.73
66.97998	2.23017	13293.218
67.0801	2.2337	13314.568
67.1802	2.23718	13333.714
67.2803	2.240941	13350.767
67.3804	2.2437	13368.466
67.4805	2.24789	13387.563
67.5806	2.249974	13406.18
67.6807	2.25462	13371.954
67.7808	2.2575	13393.218
67.8809	2.26119	13409.377
67.981	2.26511	13429.31
68.0811	2.26714	13446.429
68.1812	2.27034	13468.924
68.28125	2.27404	13488.298
68.3813	2.27732	13506.127
68.4814	2.27939	13526.18
68.5815	2.28293	13543.028
68.6816	2.28739	13564.854
68.7817	2.29063	13583.587
68.8818	2.29459	13601.304
68.9819	2.29673	13618.542
69.082	2.30066	13640.282
69.1821	2.30342	13661.368
69.2822	2.30715	13682.55
69.3823	2.31118	13701.411
69.4824	2.31376	13719.671
69.58252	2.31572	13739.274
69.6826	2.32058	13740.458
69.7827	2.32395	13758.015
69.8828	2.32748	13775.699
69.98291	2.33122	13699.133
70.083	2.33412	13715.731
70.1831	2.33711	13734.354
70.2832	2.341038	13749.731
70.3833	2.34423	13766.695
70.4834	2.347368	13785.573
70.5835	2.35063	13805.1
70.6836	2.35369	13821.926
70.7837	2.35872	13610.24
70.8838	2.36256	13599.713
70.9839	2.36574	13612.463
71.084	2.36835	13626.146
71.1841	2.3719	13642.546
71.28418	2.37459	13652.345
71.3843	2.37808	13633.753
71.4844	2.38203	13648.241
71.5845	2.38442	13660.089
71.68457	2.38756	13678.271
71.7847	2.39091	13679.86
71.8848	2.39514	13694.438
71.9849	2.39852	13709.91
72.085	2.40168	13727.329
72.1851	2.40341	13748.165