File: dublin_poster_plots/Tensile Tests - Quenched Samples 20180604/BLPX-M1-Q045-02_20180604/specimen.dat
MTS793|MPT|ENU|1|2|.|/|:|1|0|0|A

Data Acquisition						Time:	66.8501	s	6/4/2018 4:14:49 PM
Time	MTS 4 Displacement 4	MTS 4 Force 4
s	mm	N
0.11377	0.000107288	-22.28627
0.213867	0.00451803	-18.5008
0.313965	0.00746548	-13.04783
0.4140625	0.0106305	-9.846035
0.51416	0.0151604	-3.30778
0.614258	0.0179857	0.0508502
0.714355	0.0203967	7.17612
0.814453	0.0240833	9.48375
0.914551	0.0275046	16.2059
1.01465	0.0304908	23.4772
1.11475	0.0353903	29.2696
1.21484	0.0378281	37.5054
1.31494	0.0413835	42.9614
1.41504	0.0441611	50.0267
1.51514	0.04760921	57.0695
1.61523	0.0509262	63.8887
1.715332	0.0543922	71.2558
1.81543	0.0582039	77.343
1.91553	0.06212	85.56601
2.015625	0.0635296	94.5277
2.11572	0.0674814	102.406
2.21582	0.0720561	108.414
2.315918	0.0742078	111.585
2.41602	0.077036	120.833
2.51611	0.0803769	121.023
2.61621	0.08392036	130.4821
2.71631	0.0872105	140.695
2.81641	0.0907153	151.134
2.9165	0.0942588	161.008
3.0166	0.0975579	172.588
3.1167	0.10061	184.202
3.2168	0.1052171	194.106
3.31689	0.107706	201.257
3.41699	0.111765	213.129
3.51709	0.113842	224.854
3.61719	0.117424	238.734
3.71729	0.120774	253.647
3.81738	0.123653	264.735
3.91748	0.127533	278.147
4.01758	0.1301676	292.443
4.11768	0.133231	304.905
4.21777	0.13738	317.125
4.31787	0.142193	330.802
4.41797	0.14309	345.727
4.51807	0.14745	361.349
4.61816	0.150207	374.602
4.71826	0.152853	390.924
4.81836	0.157699	406.187
4.918457	0.1604706	422.21
5.01855	0.163269	437.166
5.11865	0.1667738	448.961
5.21875	0.169843	466.5835
5.31885	0.174373	482.749
5.41895	0.176635	497.8287
5.519043	0.180468	512.034
5.61914	0.1827091	528.9397
5.71924	0.186953	543.149
5.81934	0.18937	558.543
5.91943	0.192711	575.501
6.01953	0.197145	594.904
6.11963	0.199592	611.839
6.21973	0.202918	628.369
6.31982	0.207144	644.792
6.41992	0.210437	662.863
6.52002	0.213659	679.3042
6.62012	0.215828	696.334
6.72021	0.219554	714.922
6.82031	0.222954	731.142
6.92041	0.227353	750.246
7.02051	0.230446	764.334
7.12061	0.233293	781.472
7.2207	0.236711	799.593
7.3208	0.24046	817.865
7.4209	0.243181	836.329
7.521	0.246415	853.605
7.62109	0.2494216	871.946
7.72119	0.253147	887.744
7.82129	0.256994	903.731
7.92139	0.259277	921.311
8.02148	0.263423	933.275
8.121582	0.268167	951.986
8.22168	0.270143	968.052
8.32178	0.272328	986.557
8.421875	0.275493	1007.71
8.52197	0.2813369	1025.8
8.62207	0.283703	1043.459
8.722168	0.286219	1062.97
8.82227	0.2902925	1083.13
8.92236	0.293776	1099.241
9.02246	0.297314	1113.708
9.12256	0.3005594	1131.95
9.22266	0.303036	1147.17
9.32275	0.305828	1164.4
9.42285	0.309861	1182.44
9.52295	0.314012	1201.35
9.62305	0.3161639	1220.349
9.72314	0.319868	1235.4
9.82324	0.323778	1255.27
9.92334	0.326368	1271.87
10.0234	0.329962	1291.37
10.1235	0.332889	1307.446
10.2236	0.336254	1326.99
10.32373	0.339147	1343.071
10.4238	0.344348	1358.84
10.5239	0.346878	1377.36
10.624	0.349092	1396.08
10.7241	0.35359	1415.79
10.8242	0.3575623	1434.587
10.9243	0.360212	1450.78
11.0244	0.3634572	1468.19
11.1245	0.366938	1486.49
11.2246	0.369796	1503.21
11.3247	0.373355	1521.11
11.4248	0.376609	1539.16
11.5249	0.379068	1557.93
11.625	0.382894	1575.16
11.7251	0.386694	1593.5
11.8252	0.390449	1610.18
11.9253	0.393617	1627.44
12.0254	0.396693	1644.61
12.1255	0.400198	1660.725
12.2256	0.404069	1680.31
12.3257	0.406343	1698.53
12.4258	0.409639	1716.41
12.5259	0.413454	1732.15
12.626	0.417134	1745.5
12.7261	0.419846	1766.72
12.8262	0.4239589	1784.31
12.92627	0.426081	1797.012
13.0264	0.43067	1816.51
13.1265	0.433162	1832.67
13.2266	0.437382	1851.15
13.32666	0.439215	1866.02
13.4268	0.444096	1884.61
13.5269	0.446168	1901.6
13.627	0.449696	1913.95
13.7271	0.453219	1930.09
13.8271	0.456473	1946.47
13.9272	0.460011	1964.746
14.0273	0.46317	1983.61
14.1274	0.466764	1999.87
14.2275	0.470334	2017.89
14.3276	0.47304	2035.51
14.4277	0.479048	2055.02
14.5278	0.481072	2072.82
14.62793	0.484297	2090.32
14.728	0.487274	2108.76
14.8281	0.490591	2123.93
14.9282	0.495097	2144.26
15.02832	0.499213	2157.36
15.1284	0.501376	2179.81
15.2285	0.505319	2200.71
15.3286	0.5084604	2220.658
15.4287	0.512588	2242.14
15.5288	0.517574	2269.06
15.6289	0.522831	2294.15
15.729	0.526512	2311.186
15.8291	0.529632	2324.01
15.9292	0.5328	2340.59
16.0293	0.535369	2358.68
16.1294	0.539243	2376.03
16.2295	0.542128	2393.72
16.32959	0.546202	2411.26
16.4297	0.550121	2428.41
16.5298	0.552595	2444.99
16.6299	0.5551964	2461.51
16.72998	0.558826	2478.95
16.8301	0.562042	2497.728
16.9302	0.564396	2513.4
17.0303	0.567719	2531.12
17.1304	0.571859	2547.84
17.2305	0.575408	2564.28
17.3306	0.578111	2578.3
17.4307	0.581604	2595.11
17.5308	0.584719	2611.67
17.6309	0.58718	2629.35
17.731	0.59137	2642
17.8311	0.594217	2659.99
17.9312	0.5979	2677.175
18.03125	0.602359	2693.24
18.1313	0.604284	2711.03
18.2314	0.607657	2728.82
18.3315	0.610867	2743.33
18.4316	0.613526	2760.22
18.5317	0.6182909	2780.39
18.6318	0.620943	2794.57
18.7319	0.624841	2814.19
18.832	0.626752	2828.31
18.9321	0.630659	2847.02
19.0322	0.63372	2865.44
19.1323	0.637797	2881.93
19.2324	0.640824	2897.45
19.33252	0.644565	2915.54
19.4326	0.647676	2932.37
19.5327	0.650862	2950.85
19.6328	0.652903	2965.92
19.73291	0.65718	2982.14
19.833	0.659755	2998.35
19.9331	0.663689	3016.22
20.0332	0.667396	3037.18
20.1333	0.669846	3053.11
20.2334	0.672835	3072.1
20.3335	0.677362	3089.98
20.4336	0.680363	3110.03
20.5337	0.682962	3124.96
20.6338	0.687754	3142.94
20.7339	0.689754	3158.22
20.834	0.693032	3176.29
20.9341	0.696889	3194.72
21.03418	0.699791	3213.54
21.1343	0.702986	3232.13
21.2344	0.706467	3248.13
21.3345	0.710154	3264.91
21.43457	0.712007	3282.69
21.5347	0.716907	3303.67
21.6348	0.719061	3321.28
21.7349	0.722286	3338.63
21.835	0.727427	3356.333
21.9351	0.728539	3374.32
22.0352	0.732484	3390.4
22.1353	0.736889	3407.17
22.2354	0.738829	3424.92
22.3354	0.74228	3444.38
22.4355	0.747299	3459.21
22.5356	0.7488519	3478.57
22.6357	0.75289	3497.37
22.73584	0.754827	3516.76
22.8359	0.759852	3534.74
22.936	0.762981	3550.52
23.0361	0.766152	3567.072
23.13623	0.76955	3583.43
23.2363	0.772431	3603.49
23.3364	0.776485	3620.24
23.4365	0.77804	3638.646
23.5366	0.782737	3658.53
23.6367	0.78519	3675.46
23.7368	0.789028	3693.4
23.8369	0.792325	3712.12
23.937	0.795797	3730.91
24.0371	0.798291	3747.08
24.1372	0.802994	3764.36
24.2373	0.805363	3782.28
24.3374	0.808918	3799.3
24.4375	0.81161	3819.32
24.5376	0.815532	3838.09
24.6377	0.82005	3860.62
24.7378	0.8225292	3876.77
24.8379	0.826445	3891.009
24.938	0.829351	3909.61
25.0381	0.832775	3927.749
25.1382	0.835496	3943.125
25.2383	0.838855	3960.1
25.3384	0.8423835	3979.55
25.4385	0.8456409	3997.61
25.5386	0.849402	4015.87
25.6387	0.852087	4032.86
25.73877	0.8551687	4049.45
25.8389	0.860271	4066.23
25.939	0.862128	4085.66
26.0391	0.865167	4106.49
26.13916	0.868493	4126.1
26.2393	0.871661	4145.48
26.3394	0.876081	4166.46
26.4395	0.879174	4182.66
26.5396	0.8818686	4203.24
26.6396	0.886703	4227.74
26.7397	0.889882	4247.39
26.8398	0.892174	4262.94
26.9399	0.8964628	4279.36
27.04	0.8993715	4298.52
27.1401	0.902891	4316.74
27.2402	0.906414	4329.57
27.3403	0.908652	4346.51
27.44043	0.912964	4363.97
27.5405	0.917512	4380.3
27.6406	0.91922	4397.27
27.7407	0.9233	4414.53
27.84082	0.925294	4432.05
27.9409	0.928241	4452.61
28.041	0.933379	4467.29
28.1411	0.936398	4487.54
28.2412	0.939906	4503.65
28.3413	0.943559	4524.89
28.4414	0.945178	4544.74
28.5415	0.9501189	4561.85
28.6416	0.951669	4579.7
28.7417	0.955608	4599.62
28.8418	0.958791	4619.56
28.9419	0.962681	4636.08
29.042	0.966129	4652.62
29.14209	0.968349	4670.042
29.2422	0.972977	4690.96
29.3423	0.975335	4711.26
29.4424	0.979817	4731.16
29.54248	0.982952	4749.623
29.6426	0.985956	4765.43
29.7427	0.988483	4784.46
29.8428	0.992662	4806.19
29.9429	0.99597	4822.6
30.043	0.999022	4840.43
30.1431	1.00204	4859.83
30.2432	1.00628	4879.5
30.3433	1.009047	4897.05
30.4434	1.01183	4914.68
30.5435	1.01534	4934.95
30.6436	1.01824	4953.24
30.7437	1.02116	4970.96
30.84375	1.02554	4990.4
30.9438	1.02949	5008.59
31.0439	1.03178	5027.61
31.144	1.03571	5041.43
31.2441	1.03932	5060.29
31.3442	1.04243	5074.88
31.4443	1.04553	5092.15
31.5444	1.04876	5108.59
31.6445	1.05281	5128.96
31.7446	1.05531	5149.48
31.8447	1.05847	5167.08
31.9448	1.06245	5184.41
32.0449	1.06662	5203.87
32.14502	1.06926	5222.584
32.2451	1.07246	5241.44
32.3452	1.076	5259.959
32.4453	1.07999	5279.21
32.54541	1.08204	5298.06
32.6455	1.08562	5315.18
32.7456	1.08978	5329.78
32.8457	1.09204	5347.09
32.9458	1.09538	5365.01
33.0459	1.0991	5379.68
33.146	1.102525	5397.58
33.2461	1.10634	5416.5
33.3462	1.1095	5434.729
33.4463	1.11222	5455.51
33.5464	1.11629	5471.415
33.6465	1.11844	5491.36
33.7466	1.12194	5511.36
33.84668	1.1252	5527.48
33.9468	1.12893	5543.29
34.0469	1.132077	5564.8
34.147	1.13576	5582.1
34.24707	1.13842	5600.32
34.3472	1.142475	5617.66
34.4473	1.14541	5636.62
34.5474	1.14916	5655.71
34.6475	1.15232	5672.97
34.7476	1.15594	5692.51
34.8477	1.15859	5711.17
34.9478	1.163	5731.77
35.0479	1.16587	5748.99
35.1479	1.16892	5766.99
35.248	1.17241	5786.68
35.3481	1.17575	5803.32
35.4482	1.17912	5821.8
35.54834	1.18173	5837.85
35.6484	1.185897	5857.62
35.7485	1.18929	5876.23
35.8486	1.19166	5898.45
35.94873	1.196444	5917.84
36.0488	1.19959	5937.84
36.1489	1.20291	5954.97
36.249	1.20543	5973.146
36.3491	1.20929	5992.18
36.4492	1.21251	6008.25
36.5493	1.215592	6027.47
36.6494	1.2193	6043.62
36.7495	1.22215	6064.04
36.8496	1.22486	6082.94
36.9497	1.229462	6102.61
37.0498	1.231885	6119.98
37.1499	1.23551	6137.6
37.25	1.23886	6161.11
37.3501	1.24259	6180.59
37.4502	1.24641	6198.83
37.5503	1.24905	6216.66
37.6504	1.25259	6229.53
37.7505	1.25497	6251
37.8506	1.25885	6270.24
37.9507	1.26273	6288.85
38.0508	1.26666	6308.42
38.1509	1.26843	6312.49
38.251	1.27182	6334.542
38.3511	1.27536	6346.44
38.4512	1.27927	6363.81
38.55127	1.283	6382.11
38.6514	1.2856	6402.731
38.7515	1.28941	6420.42
38.8516	1.29225	6436.14
38.95166	1.29611	6456.23
39.0518	1.29873	6475.32
39.1519	1.30292	6496.95
39.252	1.30611	6518.24
39.3521	1.30955	6533.2
39.4521	1.31352	6553.6
39.5522	1.31553	6569.041
39.6523	1.3193	6587.45
39.7524	1.32286	6607.34
39.8525	1.32599	6624.65
39.9526	1.32891	6644.05
40.0527	1.3308	6659.6
40.1528	1.33563	6674.1
40.25293	1.33875	6694.66
40.353	1.341024	6713.71
40.4531	1.34573	6734.07
40.5532	1.3492	6752.8
40.65332	1.35205	6772.64
40.7534	1.35414	6792.38
40.8535	1.3592	6812.21
40.9536	1.36177	6829.81
41.0537	1.364702	6850.5
41.1538	1.3688	6869.9
41.2539	1.37182	6887.77
41.354	1.37537	6905.67
41.4541	1.37836	6906.7
41.5542	1.3821	6924.12
41.6543	1.386264	6941.15
41.7544	1.38915	6960.18
41.8545	1.39251	6978.459
41.95459	1.39511	6997.29
42.0547	1.39903	7014.18
42.1548	1.40214	7031.92
42.2549	1.40742	7049.96
42.35498	1.40792	7066.07
42.4551	1.4127	7083.91
42.5552	1.41709	7102.02
42.6553	1.41838	7119.96
42.7554	1.42332	7140.15
42.8555	1.42584	7155.27
42.9556	1.42901	7170.01
43.0557	1.43252	7188.63
43.1558	1.43618	7207.51
43.2559	1.43892	7228.08
43.356	1.44318	7245.292
43.4561	1.44521	7264.7
43.5562	1.44836	7281.28
43.65625	1.45203	7299.34
43.7563	1.45582	7314.02
43.8564	1.459	7335.19
43.9565	1.4631	7352.27
44.0566	1.46522	7372
44.1567	1.468724	7385.13
44.2568	1.47225	7400.38
44.3569	1.4755	7419.55
44.457	1.47836	7436.87
44.5571	1.48251	7457.24
44.6572	1.4858	7475.52
44.7573	1.49016	7485.37
44.8574	1.493451	7504.8
44.95752	1.49577	7523.69
45.0576	1.49943	7542.17
45.1577	1.50231	7560.72
45.2578	1.50568	7578.15
45.35791	1.50844	7595.33
45.458	1.51308	7611.91
45.5581	1.515	7630.67
45.6582	1.51958	7648.94
45.7583	1.5219	7662.34
45.8584	1.52555	7677.78
45.9585	1.52844	7697.98
46.0586	1.53187	7717.19
46.1587	1.5354	7735.82
46.2588	1.54013	7753.76
46.3589	1.54296	7770.91
46.459	1.54612	7786.81
46.5591	1.54927	7773.19
46.65918	1.55321	7775.12
46.7593	1.55727	7791.66
46.8594	1.55939	7795.97
46.9595	1.56342	7790.69
47.05957	1.56673	7805.01
47.1597	1.56977	7821.39
47.2598	1.57273	7829.75
47.3599	1.5775	7745.77
47.46	1.58103	7731.67
47.5601	1.58341	7746.436
47.6602	1.58698	7763.72
47.7603	1.59055	7774.77
47.8604	1.59306	7789.43
47.9604	1.59768	7803.96
48.0605	1.6	7821.53
48.1606	1.60227	7839.52
48.2607	1.6059	7857.9
48.36084	1.60858	7873.58
48.4609	1.612848	7880.353
48.561	1.61626	7889.52
48.6611	1.6199	7902.79
48.76123	1.62335	7909.84
48.8613	1.6269	7851.67
48.9614	1.63038	7866.19
49.0615	1.63314	7867.03
49.1616	1.63824	7776.91
49.2617	1.64119	7793.14
49.3618	1.64438	7811.249
49.4619	1.6472	7827.4
49.562	1.650089	7846.11
49.6621	1.65357	7862.58
49.7622	1.65679	7882.42
49.8623	1.65968	7898.68
49.9624	1.66319	7914.7
50.0625	1.66736	7918.97
50.1626	1.6696	7932.72
50.2627	1.673606	7951.48
50.3628	1.676771	7965.82
50.4629	1.67987	7983.85
50.563	1.68275	7994.522
50.6631	1.685521	8012.519
50.7632	1.68957	8030.94
50.8633	1.69311	8041.28
50.9634	1.69634	8059.24
51.0635	1.69976	8076.66
51.1636	1.70242	8088.66
51.2637	1.70634	8110.19
51.36377	1.70956	8126.28
51.4639	1.71344	8144.63
51.564	1.715064	8164.39
51.6641	1.71905	8184.1
51.76416	1.723516	8197.09
51.8643	1.72564	8213.42
51.9644	1.72967	8228.28
52.0645	1.73332	8196.94
52.1646	1.736334	8207.73
52.2646	1.73976	8224.501
52.3647	1.74317	8216.98
52.4648	1.74756	8152.41
52.5649	1.75105	8167.53
52.665	1.7535	8186.74
52.7651	1.75703	8196.91
52.8652	1.7592	8212.26
52.9653	1.76333	8068.91
53.06543	1.7685	8083.64
53.1655	1.77038	8096.02
53.2656	1.77362	8111.67
53.3657	1.77709	8128.749
53.46582	1.78016	8147.76
53.5659	1.78347	8138.2
53.666	1.7866	8156.17
53.7661	1.79047	8174.83
53.8662	1.79259	8191.57
53.9663	1.79662	8210.87
54.0664	1.79973	8228.65
54.1665	1.80165	8248.33
54.2666	1.80721	8266.1
54.3667	1.80928	8283.46
54.4668	1.81314	8301.28
54.5669	1.81686	8318.6
54.667	1.81993	8338.35
54.76709	1.823324	8354.82
54.8672	1.82624	8373.64
54.9673	1.82938	8392.43
55.0674	1.83299	8410.96
55.16748	1.836589	8431.57
55.2676	1.83974	8449.126
55.3677	1.84405	8464.73
55.4678	1.84691	8484.67
55.5679	1.8501	8501.88
55.668	1.85298	8520.06
55.7681	1.85685	8535.81
55.8682	1.86062	8555.91
55.9683	1.8629	8574.69
56.0684	1.86703	8591.93
56.1685	1.869759	8609.52
56.2686	1.87264	8628.01
56.3687	1.87663	8644.66
56.46875	1.87968	8662.95
56.5688	1.88375	8680.38
56.6689	1.88683	8699.31
56.769	1.88946	8715.58
56.8691	1.89308	8732.86
56.9692	1.897338	8750.67
57.0693	1.90039	8766.16
57.1694	1.90349	8784.99
57.2695	1.90663	8801.66
57.3696	1.90962	8819.53
57.4697	1.91353	8837.52
57.5698	1.91636	8855.06
57.6699	1.91959	8872.28
57.77002	1.92268	8891.1
57.8701	1.92635	8910.56
57.9702	1.92992	8926.33
58.0703	1.933369	8944.23
58.17041	1.936397	8961.78
58.2705	1.940918	8979.27
58.3706	1.94427	8998.16
58.4707	1.94648	9014.83
58.5708	1.95008	9031.58
58.6709	1.95364	9048.26
58.771	1.95695	9060.37
58.8711	1.95979	9076.19
58.9712	1.964134	9095.71
59.0713	1.9669	9112.42
59.1714	1.9696	9131.25
59.2715	1.97329	9146.34
59.3716	1.97684	9162.78
59.47168	1.97983	9180.71
59.5718	1.98404	9197.24
59.6719	1.98732	9214.35
59.772	1.98987	9230.97
59.87207	1.9933	9248.29
59.9722	1.99674	9265.67
60.0723	2.00028	9281.04
60.1724	2.00372	9300.02
60.2725	2.00662	9317.09
60.3726	2.01045	9334.15
60.4727	2.01384	9352.55
60.5728	2.0171	9369.9
60.6729	2.022007	9250.73
60.7729	2.02585	9266.07
60.873	2.02725	9279.08
60.9731	2.03072	9296.08
61.0732	2.03459	9310.03
61.17334	2.03834	9324.45
61.2734	2.04087	9340.07
61.3735	2.043581	9358.17
61.4736	2.046916	9374.51
61.57373	2.05105	9391.59
61.6738	2.05348	9408.14
61.7739	2.05767	9425.11
61.874	2.06075	9441.84
61.9741	2.0637	9458.69
62.0742	2.06824	9473.1
62.1743	2.07211	9489.373
62.2744	2.07376	9507.51
62.3745	2.07729	9523.84
62.4746	2.0803	9526.47
62.5747	2.08442	9543.88
62.6748	2.08689	9562.52
62.7749	2.09016	9579.332
62.875	2.09327	9597.7
62.9751	2.09732	9614.76
63.0752	2.10022	9633.54
63.1753	2.10333	9650.05
63.2754	2.10772	9667.27
63.3755	2.11033	9683.62
63.4756	2.11429	9702.293
63.5757	2.11759	9717.9
63.6758	2.11999	9735.16
63.7759	2.12433	9751.65
63.876	2.12653	9768.16
63.9761	2.12947	9784.86
64.0762	2.13365	9803.6
64.17627	2.13801	9821.47
64.2764	2.13986	9839.26
64.3765	2.14352	9856.1
64.4766	2.14713	9869.18
64.57666	2.149859	9889.12
64.6768	2.1548	9905.65
64.7769	2.15682	9922.61
64.877	2.16089	9939.44
64.9771	2.16348	9955.79
65.0771	2.16728	9973.46
65.1772	2.17043	9985.35
65.2773	2.17467	10002.396
65.3774	2.17703	10013.156
65.4775	2.18125	10028.969
65.5776	2.1836	10044.815
65.6777	2.18786	10060.549
65.7778	2.19036	10076.677
65.87793	2.19396	10088.61
65.978	2.19815	10010.12
66.0781	2.20337	9587.39
66.1782	2.206728	9588.46
66.27832	2.20931	9570.74
66.3784	2.21369	9571
66.4785	2.21603	9586.93
66.5786	2.22013	9600.98
66.6787	2.2229	9617.49
66.7788	2.226	9631.35