File: dublin_poster_plots/Tensile Tests - Quenched Samples 20180604/BLPX-M1-Q045-01_20180604/specimen.dat
MTS793|MPT|ENU|1|2|.|/|:|1|0|0|A

Data Acquisition						Time:	67.3677	s	6/4/2018 2:23:23 PM
Time	MTS 4 Displacement 4	MTS 4 Force 4
s	mm	N
0.114746	-0.000306964	-0.820681
0.214844	0.00306368	0.625104
0.314941	0.00607073	3.50419
0.415039	0.00904202	7.02711
0.515137	0.0139713	10.1455
0.615234	0.0177324	12.29439
0.715332	0.0210613	16.7179
0.81543	0.0236332	19.4125
0.915527	0.026527	23.97867
1.015625	0.0306368	24.9873
1.11572	0.0326097	28.6541
1.21582	0.0370562	31.4365
1.315918	0.0403732	35.2251
1.41602	0.0436157	40.87072
1.51611	0.0467062	43.9647
1.61621	0.0505656	48.9584
1.71631	0.0548452	52.4376
1.81641	0.05683	57.491
1.9165	0.0604272	62.8073
2.0166	0.0642478	65.7828
2.1167	0.0666559	70.44133
2.2168	0.0711441	74.5343
2.31689	0.0733465	80.3797
2.41699	0.0779957	85.94915
2.51709	0.0804514	89.35202
2.61719	0.0838488	95.121
2.71729	0.0869691	101.4119
2.81738	0.0910759	106.604
2.91748	0.0935376	114.268
3.01758	0.0973672	118.195
3.11768	0.101069	125.45
3.21777	0.104219	133.653
3.31787	0.106323	138.044
3.41797	0.110322	134.395
3.51807	0.11408	142.067
3.61816	0.116885	149.266
3.71826	0.120699	155.916
3.81836	0.12289	164.977
3.918457	0.125873	173.313
4.01855	0.130141	179.523
4.11865	0.133729	187.083
4.21875	0.137463	195.641
4.31885	0.141051	205.092
4.41895	0.143388	215.634
4.519043	0.146413	223.0309
4.61914	0.149518	235.773
4.71924	0.153577	246.1546
4.81934	0.156042	255.632
4.91943	0.1598835	265.775
5.01953	0.162536	277.049
5.11963	0.166234	287.276
5.21973	0.170112	298.924
5.31982	0.173575	311.467
5.41992	0.175822	323.294
5.52002	0.180081	334.087
5.62012	0.1812607	348.923
5.72021	0.186446	358.587
5.82031	0.189215	375.42
5.92041	0.193861	387.8912
6.02051	0.195849	401.599
6.12061	0.200275	416.04
6.2207	0.20341	424.53
6.3208	0.206238	439.51
6.4209	0.20951	453.451
6.521	0.213054	471.209
6.62109	0.215369	487.49
6.72119	0.219741	503.084
6.82129	0.223032	516.77
6.92139	0.225899	530.7027
7.02148	0.229487	550.771
7.121582	0.233266	562.849
7.22168	0.235811	579.969
7.32178	0.239912	598.202
7.421875	0.2417326	615.164
7.52197	0.247103	635.295
7.62207	0.250036	652.114
7.722168	0.252864	667.608
7.82227	0.256392	683.567
7.92236	0.258672	700.311
8.02246	0.26297	720.319
8.12256	0.266466	737.156
8.22266	0.26882	755.794
8.32275	0.273159	772.518
8.42285	0.27549	788.29
8.52295	0.2794534	805.445
8.62305	0.282088	821.928
8.72314	0.286096	838.2049
8.82324	0.28832	857.47
8.92334	0.29217	875.653
9.02344	0.295711	893.851
9.12354	0.298461	913.334
9.22363	0.302356	933.636
9.32373	0.306055	948.839
9.42383	0.308707	968.69
9.52393	0.311905	985.441
9.62402	0.316384	1004.34
9.72412	0.320089	1022.95
9.82422	0.32253	1041.65
9.92432	0.326362	1059.23
10.0244	0.328144	1068.04
10.1245	0.333363	1087.35
10.2246	0.335529	1101.63
10.3247	0.339597	1120.65
10.4248	0.342807	1139.98
10.5249	0.344971	1158.44
10.625	0.350022	1177.26
10.7251	0.353384	1196.88
10.8252	0.355339	1214.51
10.9253	0.359556	1233.756
11.0254	0.362751	1249.98
11.1255	0.366166	1270.74
11.2256	0.370306	1290.06
11.3257	0.37207	1306.7
11.4258	0.376385	1326.49
11.5259	0.378975	1341.59
11.626	0.38245	1361.04
11.7261	0.385702	1381.85
11.8262	0.3895402	1398.81
11.92627	0.393277	1418.36
12.0264	0.395429	1435.751
12.1265	0.400084	1453.58
12.2266	0.403348	1471.48
12.32666	0.406966	1490.53
12.4268	0.408816	1509.26
12.5269	0.411013	1526.84
12.627	0.416228	1545.845
12.7271	0.420311	1565.78
12.8271	0.423649	1582.53
12.9272	0.426483	1601.53
13.0273	0.430018	1620.01
13.1274	0.432938	1639.08
13.2275	0.436559	1657
13.3276	0.4396826	1672.93
13.4277	0.4430294	1690.54
13.5278	0.445795	1709.63
13.62793	0.449398	1729
13.728	0.452608	1745.634
13.8281	0.456399	1766.67
13.9282	0.460553	1786.42
14.02832	0.463197	1804.3
14.1284	0.46573	1821.72
14.2285	0.468981	1840.55
14.3286	0.473481	1857.14
14.4287	0.47715	1874.59
14.5288	0.479597	1893.55
14.6289	0.483623	1909.39
14.729	0.486308	1926.417
14.8291	0.489542	1945.61
14.9292	0.493285	1961.36
15.0293	0.49682	1981.16
15.1294	0.500256	1998.99
15.2295	0.502995	2017.25
15.32959	0.506762	2036.02
15.4297	0.510576	2053.5
15.5298	0.5133599	2071.17
15.6299	0.515869	2089.53
15.72998	0.5197674	2107.373
15.8301	0.523773	2122.97
15.9302	0.525928	2137.59
16.0303	0.529137	2156.76
16.1304	0.533229	2177.29
16.2305	0.535747	2192.78
16.3306	0.540426	2211.42
16.4307	0.542817	2229.4
16.5308	0.546515	2246.46
16.6309	0.549302	2265.34
16.731	0.552809	2282.32
16.8311	0.55626	2299.91
16.9312	0.560039	2318.178
17.03125	0.563407	2338.65
17.1313	0.566524	2355.32
17.2314	0.570714	2374.08
17.3315	0.573757	2391.87
17.4316	0.576559	2410.44
17.5317	0.579488	2427.72
17.6318	0.583988	2446.65
17.7319	0.587037	2465.91
17.832	0.590953	2485.83
17.9321	0.594032	2503.46
18.0322	0.596935	2521.61
18.1323	0.6000489	2538.63
18.2324	0.603324	2554.67
18.33252	0.608173	2574.11
18.4326	0.608876	2595.1
18.5327	0.6136626	2614.28
18.6328	0.617269	2631.4
18.73291	0.6200254	2649.64
18.833	0.623134	2667.5
18.9331	0.626802	2685.19
19.0332	0.630632	2698.79
19.1333	0.633705	2716.25
19.2334	0.637403	2734.332
19.3335	0.640342	2753.93
19.4336	0.642851	2769.94
19.5337	0.646299	2790.44
19.6338	0.649306	2806.69
19.7339	0.653127	2827.28
19.834	0.656998	2846.45
19.9341	0.660664	2865.71
20.03418	0.6644249	2887.33
20.1343	0.667056	2907.91
20.2344	0.672057	2925.97
20.3345	0.674886	2943.15
20.43457	0.676632	2961.38
20.5347	0.681746	2980.4
20.6348	0.684538	3000.82
20.7349	0.688758	3020.01
20.835	0.691718	3038.18
20.9351	0.695696	3055.17
21.0352	0.698519	3071.41
21.1353	0.70129	3090.707
21.2354	0.703493	3105.46
21.3354	0.708449	3124.53
21.4355	0.711957	3143.17
21.5356	0.715664	3163.72
21.6357	0.718704	3187.58
21.73584	0.723895	3215.81
21.8359	0.72805	3238.38
21.936	0.734285	3281.34
22.0361	0.740606	3307.231
22.13623	0.744024	3321.749
22.2363	0.746068	3338.73
22.3364	0.750571	3356.23
22.4365	0.752276	3372.48
22.5366	0.754479	3391.49
22.6367	0.758576	3406.79
22.7368	0.761357	3423.86
22.8369	0.765473	3440.48
22.937	0.767869	3457.94
23.0371	0.77126	3477.335
23.1372	0.775087	3493.32
23.2373	0.77801	3510.61
23.3374	0.780931	3526.33
23.4375	0.784329	3544.37
23.5376	0.787073	3560.28
23.6377	0.7894814	3577.21
23.7378	0.7930696	3594.84
23.8379	0.797454	3612.67
23.938	0.798717	3630.093
24.0381	0.803506	3647.09
24.1382	0.806326	3665.88
24.2383	0.809303	3681.13
24.3384	0.811908	3699.46
24.4385	0.815547	3717.36
24.5386	0.819156	3735.64
24.6387	0.822073	3756.36
24.73877	0.825354	3772.09
24.8389	0.829002	3789.87
24.939	0.833508	3811.49
25.0391	0.834677	3824.635
25.13916	0.8382082	3841.72
25.2393	0.840822	3859.89
25.3394	0.84447	3876.5
25.4395	0.8477211	3895.56
25.5396	0.851312	3914.53
25.6396	0.85482	3933.1
25.7397	0.856504	3949.99
25.8398	0.860861	3967.86
25.9399	0.863588	3986.502
26.04	0.867504	4001.94
26.1401	0.869086	4023.5
26.2402	0.87325	4040.9
26.3403	0.877249	4058.6
26.44043	0.88042	4076.69
26.5405	0.883442	4094.69
26.6406	0.88667	4114.66
26.7407	0.8896023	4132.31
26.84082	0.892809	4151.03
26.9409	0.895569	4169.65
27.041	0.900114	4189.02
27.1411	0.90265	4205.98
27.2412	0.905937	4226.1
27.3413	0.9093672	4242.68
27.4414	0.912434	4261.16
27.5415	0.915611	4280.67
27.6416	0.919768	4298.06
27.7417	0.922742	4313.18
27.8418	0.9264797	4334.2
27.9419	0.930277	4353.5
28.042	0.933072	4371.51
28.14209	0.936097	4390.43
28.2422	0.939286	4408.82
28.3423	0.942531	4425.51
28.4424	0.945812	4442.9
28.54248	0.948977	4462.78
28.6426	0.952733	4481.88
28.7427	0.955418	4501.56
28.8428	0.958768	4523.28
28.9429	0.961837	4540.95
29.043	0.9653002	4559.41
29.1431	0.9689033	4577.22
29.2432	0.972068	4594.8
29.3433	0.975561	4614.33
29.4434	0.979301	4633.09
29.5435	0.982121	4651.94
29.6436	0.984961	4670.75
29.7437	0.9886235	4690.27
29.84375	0.992253	4707.95
29.9438	0.99504	4730.12
30.0439	0.999296	4749.47
30.144	1.00225	4770.25
30.2441	1.00582	4788.15
30.3442	1.00913	4805.89
30.4443	1.01257	4823.97
30.5444	1.01533	4842.41
30.6445	1.0192	4860.26
30.7446	1.02086	4879.16
30.8447	1.025188	4901.36
30.9448	1.03	4924.48
31.0449	1.03307	4942.81
31.14502	1.03585	4961.38
31.2451	1.03831	4980.86
31.3452	1.04287	5000.51
31.4453	1.045388	5018.62
31.54541	1.0497	5036.96
31.6455	1.05287	5055.76
31.7456	1.05539	5075.46
31.8457	1.05917	5094.64
31.9458	1.06298	5112.99
32.0459	1.066196	5131.36
32.146	1.06863	5150.95
32.2461	1.0737	5172.52
32.3462	1.07561	5190.09
32.4463	1.07958	5209.73
32.5464	1.0823	5227.52
32.6465	1.08521	5248.36
32.7466	1.0893	5268.81
32.84668	1.09283	5288.53
32.9468	1.09564	5308.61
33.0469	1.09793	5327.02
33.147	1.10276	5347.74
33.24707	1.10635	5364.85
33.3472	1.10965	5381.24
33.4473	1.11184	5401.353
33.5474	1.11595	5418.606
33.6475	1.11882	5438.19
33.7476	1.12189	5457.437
33.8477	1.125589	5477.43
33.9478	1.12899	5497.16
34.0479	1.13264	5516.73
34.1479	1.13506	5533.87
34.248	1.1389	5553.08
34.3481	1.14235	5573.36
34.4482	1.14512	5590.49
34.54834	1.14914	5607.74
34.6484	1.15307	5626.022
34.7485	1.15653	5647.29
34.8486	1.1602	5667.58
34.94873	1.162	5685.23
35.0488	1.16621	5703.26
35.1489	1.16983	5722.15
35.249	1.172021	5740.12
35.3491	1.17493	5762.92
35.4492	1.17878	5782.85
35.5493	1.18322	5802.623
35.6494	1.18625	5822.3
35.7495	1.18913	5842.03
35.8496	1.19266	5860.18
35.9497	1.19617	5878.96
36.0498	1.19923	5897.38
36.1499	1.20358	5916.5
36.25	1.20585	5932.01
36.3501	1.20968	5952.144
36.4502	1.21284	5971.16
36.5503	1.21533	5988.51
36.6504	1.21902	6008.14
36.7505	1.22281	6027.07
36.8506	1.22696	6043.19
36.9507	1.22848	6063.42
37.0508	1.23191	6083.78
37.1509	1.23624	6102.7
37.251	1.24021	6123.98
37.3511	1.2425	6142.2
37.4512	1.246658	6164.01
37.55127	1.2502	6179.44
37.6514	1.252237	6196.91
37.7515	1.2567	6217.86
37.8516	1.25994	6234.36
37.95166	1.263091	6254.66
38.0518	1.26712	6274.89
38.1519	1.26913	6293.32
38.252	1.27296	6314.38
38.3521	1.27598	6332.14
38.4521	1.27958	6351.16
38.5522	1.282379	6368.81
38.6523	1.28644	6387.96
38.7524	1.28955	6406.17
38.8525	1.2917	6426.01
38.9526	1.29592	6445.15
39.0527	1.29941	6466.25
39.1528	1.30282	6485.543
39.25293	1.30535	6505.05
39.353	1.3109	6526.06
39.4531	1.31432	6546.9
39.5532	1.3164	6562.72
39.65332	1.32047	6581.8
39.7534	1.32254	6600.59
39.8535	1.32586	6617.72
39.9536	1.32889	6638.56
40.0537	1.33197	6658.81
40.1538	1.33591	6675.82
40.2539	1.33945	6695.43
40.354	1.34355	6714.501
40.4541	1.34544	6732.38
40.5542	1.34852	6751.916
40.6543	1.35306	6770.18
40.7544	1.35608	6787.88
40.8545	1.36002	6808.26
40.95459	1.36342	6827.76
41.0547	1.36627	6846.77
41.1548	1.36954	6865.97
41.2549	1.3724	6884.69
41.35498	1.37608	6904.16
41.4551	1.38069	6922.07
41.5552	1.38285	6941.64
41.6553	1.38625	6961.72
41.7554	1.3907	6981.47
41.8555	1.39189	7001.51
41.9556	1.39657	7020.26
42.0557	1.39948	7039.103
42.1558	1.40332	7059.61
42.2559	1.4056	7077.87
42.356	1.41011	7097.2
42.4561	1.41303	7116.76
42.5562	1.41427	7135.43
42.65625	1.42114	7151.75
42.7563	1.42247	7171.88
42.8564	1.4262	7191.8
42.9565	1.4282	7210.01
43.0566	1.43348	7218.415
43.1567	1.4366	7236.6
43.2568	1.440227	7256.81
43.3569	1.44372	7275.04
43.457	1.44689	7289.43
43.5571	1.45027	7304.93
43.6572	1.45251	7320.34
43.7573	1.45598	7338.67
43.8574	1.46011	7343.86
43.95752	1.46312	7362.749
44.0576	1.46636	7382.4
44.1577	1.46987	7403.84
44.2578	1.473251	7423.77
44.35791	1.476714	7441.8
44.458	1.47994	7460.61
44.5581	1.48295	7478.32
44.6582	1.48596	7498.49
44.7583	1.48918	7516.29
44.8584	1.49385	7534.4
44.9585	1.49581	7555.61
45.0586	1.49973	7574.24
45.1587	1.50343	7592.42
45.2588	1.506871	7607.53
45.3589	1.50951	7627.42
45.459	1.51194	7647.12
45.5591	1.51567	7666.064
45.65918	1.51997	7687.65
45.7593	1.52341	7709.3
45.8594	1.527	7719.22
45.9595	1.52973	7737.72
46.05957	1.533106	7756.41
46.1597	1.53752	7776.019
46.2598	1.54098	7791.96
46.3599	1.54352	7810.38
46.46	1.54578	7828.76
46.5601	1.55166	7849.25
46.6602	1.55393	7870.44
46.7603	1.55652	7888.45
46.8604	1.56014	7905.99
46.9604	1.56301	7925.23
47.0605	1.5667	7943.58
47.1606	1.56982	7960.79
47.2607	1.573059	7980.873
47.36084	1.577	7999.59
47.4609	1.57911	8018.94
47.561	1.58407	8036.855
47.6611	1.586768	8057.13
47.76123	1.58938	8076.04
47.8613	1.59363	8095.459
47.9614	1.59754	8113.26
48.0615	1.60096	8130.38
48.1616	1.60355	8149.93
48.2617	1.60677	8167.73
48.3618	1.61025	8188.15
48.4619	1.61365	8206.15
48.562	1.61714	8223.27
48.6621	1.62057	8242.1
48.7622	1.62348	8262.53
48.8623	1.62705	8283.16
48.9624	1.63032	8301.27
49.0625	1.63346	8317.51
49.1626	1.63698	8337.65
49.2627	1.64088	8357.27
49.3628	1.64411	8372.64
49.4629	1.64656	8387.72
49.563	1.65148	8376.79
49.6631	1.65448	8377.06
49.7632	1.65812	8395.46
49.8633	1.66052	8414.8
49.9634	1.6638	8432
50.0635	1.66662	8449.24
50.1636	1.67039	8468.9
50.2637	1.67397	8487.9
50.36377	1.67653	8507.28
50.4639	1.68082	8523.08
50.564	1.6839	8543.89
50.6641	1.68747	8563
50.76416	1.690349	8580.55
50.8643	1.69358	8597.47
50.9644	1.69787	8617.7
51.0645	1.69922	8635.95
51.1646	1.7038	8655.46
51.2646	1.70734	8675.95
51.3647	1.7114	8695.38
51.4648	1.71399	8714.96
51.5649	1.71667	8733.49
51.665	1.72029	8753.57
51.7651	1.72438	8772.93
51.8652	1.72628	8787.79
51.9653	1.729244	8808.501
52.06543	1.73412	8828.11
52.1655	1.73728	8844.4
52.2656	1.7394	8862.48
52.3657	1.74292	8882.042
52.46582	1.74677	8901.02
52.5659	1.74953	8919.9
52.666	1.75416	8936.1
52.7661	1.757	8955.92
52.8662	1.75948	8976.42
52.9663	1.76411	8993.17
53.0664	1.76728	8995.51
53.1665	1.7703	9004.16
53.2666	1.77423	9024.17
53.3667	1.77782	9042.87
53.4668	1.78098	9039.14
53.5669	1.783213	9060.375
53.667	1.78692	9078.16
53.76709	1.790297	9096.21
53.8672	1.79403	9113.85
53.9673	1.79794	9133.2
54.0674	1.79982	9150.89
54.16748	1.803273	9171.06
54.2676	1.80739	9189.39
54.3677	1.81045	9209.2
54.4678	1.81449	9227.49
54.5679	1.81753	9245.8
54.668	1.82076	9263.55
54.7681	1.82298	9282.24
54.8682	1.82714	9302.68
54.9683	1.82946	9320.93
55.0684	1.83382	9339.498
55.1685	1.83783	9357.71
55.2686	1.84025	9376.6
55.3687	1.842761	9393.44
55.46875	1.84508	9413.72
55.5688	1.850608	9431.44
55.6689	1.85387	9449.76
55.769	1.85749	9469.06
55.8691	1.860866	9487.99
55.9692	1.86306	9507.18
56.0693	1.86741	9528.09
56.1694	1.87047	9547.61
56.2695	1.87411	9566.26
56.3696	1.87742	9583.96
56.4697	1.88015	9597.59
56.5698	1.88385	9615.03
56.6699	1.88695	9633.28
56.77002	1.88887	9646.57
56.8701	1.894784	9665.21
56.9702	1.89703	9683.74
57.0703	1.90055	9700.97
57.17041	1.90407	9718.44
57.2705	1.90725	9737.04
57.3706	1.91164	9636.67
57.4707	1.91554	9551.26
57.5708	1.91994	9566.999
57.6709	1.92269	9585.58
57.771	1.92667	9597.8
57.8711	1.92881	9587.49
57.9712	1.9318	9608.66
58.0713	1.9357	9626.61
58.1714	1.938507	9646.416
58.2715	1.94176	9665.45
58.3716	1.94428	9682.043
58.47168	1.94647	9699.84
58.5718	1.951161	9716.57
58.6719	1.954937	9679.21
58.772	1.95844	9693.55
58.87207	1.96094	9712.91
58.9722	1.96465	9727.85
59.0723	1.96853	9748.23
59.1724	1.970759	9712.43
59.2725	1.97553	9626.18
59.3726	1.9826	9236.68
59.4727	1.98702	9250.22
59.5728	1.98852	9265.62
59.6729	1.99183	9283.25
59.7729	1.99457	9301.13
59.873	1.998	9318.45
59.9731	2.00182	9337.34
60.0732	2.00489	9354.38
60.17334	2.00673	9374.62
60.2734	2.01178	9393.55
60.3735	2.01276	9412.65
60.4736	2.01812	9433.46
60.57373	2.02005	9452.47
60.6738	2.02266	9470.94
60.7739	2.02592	9490.91
60.874	2.02937	9508.36
60.9741	2.03282	9528.12
61.0742	2.03517	9548.84
61.1743	2.03897	9566.84
61.2744	2.04163	9584.26
61.3745	2.04543	9603.11
61.4746	2.04873	9621.61
61.5747	2.05044	9640.83
61.6748	2.05456	9660.77
61.7749	2.05843	9677.47
61.875	2.06157	9696.17
61.9751	2.06545	9714.58
62.0752	2.06862	9733.3
62.1753	2.07174	9750.5
62.2754	2.07472	9768.957
62.3755	2.07728	9762.38
62.4756	2.08072	9781.543
62.5757	2.0844	9800.43
62.6758	2.09162	9450.62
62.7759	2.09492	9469.99
62.876	2.0973	9487.33
62.9761	2.10103	9504
63.0762	2.10356	9523.88
63.17627	2.10782	9486.792
63.2764	2.11057	9506.48
63.3765	2.11357	9524.48
63.4766	2.11708	9542.37
63.57666	2.12033	9560.41
63.6768	2.12345	9577.61
63.7769	2.12553	9596.29
63.877	2.12996	9614.33
63.9771	2.13281	9633.39
64.0771	2.13474	9649.99
64.1772	2.13868	9668.72
64.2773	2.14076	9686.22
64.3774	2.14483	9703.54
64.4775	2.14865	9722.4
64.5776	2.15158	9738.38
64.6777	2.15433	9756.75
64.7778	2.15732	9773.5
64.87793	2.16185	9628.38
64.978	2.16697	9651.72
65.0781	2.17018	9670.04
65.1782	2.17336	9688.41
65.27832	2.17559	9705.2
65.3784	2.17648	9722.249
65.4785	2.18177	9740.54
65.5786	2.18539	9755.7
65.6787	2.1879	9773.3
65.7788	2.1914	9790.88
65.8789	2.19433	9807.82
65.979	2.19839	9823.416
66.0791	2.19964	9838.9
66.1792	2.20525	9674.72
66.2793	2.20832	9688.47
66.3794	2.2118	9705.05
66.4795	2.21497	9721.53
66.57959	2.21729	9739.44
66.6797	2.22	9756.55
66.7798	2.22534	9774.26
66.8799	2.22857	9790.23
66.97998	2.23189	9806.82
67.0801	2.23604	9690.33
67.1802	2.239275	9671.15
67.2803	2.243206	9663.62