File: dublin_poster_plots/Tensile Tests - Quenched Samples 20180604/BLPX-M1-Q015-01_20180604/specimen.dat
MTS793|MPT|ENU|1|2|.|/|:|1|0|0|A

Data Acquisition						Time:	97.146	s	6/4/2018 2:43:20 PM
Time	MTS 4 Displacement 4	MTS 4 Force 4
s	mm	N
0.114746	0.000569224	-99.428
0.214844	0.002563	-79.6635
0.314941	0.00661016	-54.0883
0.415039	0.00950396	-29.9136
0.515137	0.0120729	-6.03469
0.615234	0.0160664	21.2434
0.715332	0.0202388	47.2265
0.81543	0.0230402	71.3699
0.915527	0.0264555	97.74649
1.015625	0.0292689	121.069
1.11572	0.0327468	147.269
1.21582	0.0353724	173.048
1.315918	0.03913343	200.9511
1.41602	0.0424832	226.679
1.51611	0.0456065	250.82
1.61621	0.0498205	276.1485
1.71631	0.051868	301.943
1.81641	0.0560015	327.264
1.9165	0.0587016	351.847
2.0166	0.0617176	378.276
2.1167	0.0650495	404.181
2.2168	0.0683486	432.63
2.31689	0.071919	458.147
2.41699	0.07442832	483.424
2.51709	0.07828176	512.016
2.61719	0.0807464	537.882
2.71729	0.0852644	563.2948
2.81738	0.0879616	589.211
2.91748	0.0910133	615.974
3.01758	0.0945479	636.921
3.11768	0.097385	665.022
3.21777	0.101718	691.991
3.31787	0.105765	713.0976
3.41797	0.1077652	741.466
3.51807	0.111589	770.407
3.61816	0.11422	793.51
3.71826	0.118247	821.4212
3.81836	0.121155	848.815
3.918457	0.125405	876.705
4.01855	0.127283	900.517
4.11865	0.130412	924.905
4.21875	0.134197	952.304
4.31885	0.138119	975.948
4.41895	0.140804	1002.52
4.519043	0.144559	1029.32
4.61914	0.14804	1055.98
4.71924	0.150836	1080.62
4.81934	0.155079	1109.98
4.91943	0.158665	1133.15
5.01953	0.159958	1159.807
5.11963	0.164008	1182.62
5.21973	0.167164	1210.78
5.31982	0.17097	1237.7
5.41992	0.173974	1260.959
5.52002	0.177956	1288.21
5.62012	0.18225	1314.32
5.72021	0.185081	1342.01
5.82031	0.189468	1366.91
5.92041	0.1912564	1392.19
6.02051	0.19429	1417.31
6.12061	0.197491	1441.85
6.2207	0.1996398	1469.98
6.3208	0.2050072	1496.22
6.4209	0.207654	1519.87
6.521	0.211024	1548.34
6.62109	0.214463	1573.22
6.72119	0.217095	1598.85
6.82129	0.222379	1622.85
6.92139	0.224343	1648.97
7.02148	0.228071	1673.937
7.121582	0.231302	1701.29
7.22168	0.234392	1726.22
7.32178	0.237688	1752.46
7.421875	0.240427	1778.65
7.52197	0.243947	1806.25
7.62207	0.247303	1830.99
7.722168	0.251314	1854.79
7.82227	0.254166	1879.55
7.92236	0.257391	1905.49
8.02246	0.262532	1932.01
8.12256	0.264007	1956.97
8.22266	0.268617	1987.71
8.32275	0.271115	2012.36
8.42285	0.275692	2038.307
8.52295	0.27788	2064.21
8.62305	0.282151	2091.36
8.72314	0.284201	2115.48
8.82324	0.287378	2141.97
8.92334	0.291994	2167.04
9.02344	0.294581	2189.9
9.12354	0.29822	2218.11
9.22363	0.301412	2243.03
9.32373	0.3049165	2267.584
9.42383	0.308529	2292.6
9.52393	0.311619	2316.36
9.62402	0.314695	2340.31
9.72412	0.31774	2368.14
9.82422	0.321147	2394.13
9.92432	0.324494	2418.35
10.0244	0.327885	2443.29
10.1245	0.331685	2469.87
10.2246	0.333744	2492.719
10.3247	0.338066	2518.76
10.4248	0.340897	2548.03
10.5249	0.345054	2575.53
10.625	0.348061	2598.48
10.7251	0.351977	2624.88
10.8252	0.354096	2648.35
10.9253	0.358081	2674.52
11.0254	0.361413	2701.814
11.1255	0.3649801	2727.35
11.2256	0.3667444	2745.57
11.3257	0.372133	2779.959
11.4258	0.375938	2805.74
11.5259	0.379631	2831.699
11.626	0.381026	2854.5
11.7261	0.3852874	2881.06
11.8262	0.38881	2905.61
11.92627	0.390986	2930.52
12.0264	0.395137	2956.42
12.1265	0.399163	2985.71
12.2266	0.402406	3010.18
12.32666	0.405526	3035.042
12.4268	0.409085	3059.42
12.5269	0.412789	3090.488
12.627	0.41613	3116.28
12.7271	0.419757	3138.29
12.8271	0.423163	3162.47
12.9272	0.425491	3188.62
13.0273	0.429276	3215.77
13.1274	0.433326	3241.26
13.2275	0.438297	3284.82
13.3276	0.444484	3334.97
13.4277	0.449002	3360.51
13.5278	0.451636	3382.38
13.62793	0.454572	3405.05
13.728	0.4578352	3433.04
13.8281	0.461826	3456.13
13.9282	0.4653126	3481.06
14.02832	0.467944	3506.14
14.1284	0.471336	3528.71
14.2285	0.474218	3551.98
14.3286	0.477266	3575.14
14.4287	0.480536	3597.4
14.5288	0.482994	3617.91
14.6289	0.4869312	3645.84
14.729	0.489795	3670.719
14.8291	0.493929	3694.98
14.9292	0.496161	3717.54
15.0293	0.500873	3740.532
15.1294	0.502878	3763.8
15.2295	0.505549	3786.386
15.32959	0.509599	3814.35
15.4297	0.512671	3838.8
15.5298	0.515899	3861.63
15.6299	0.518858	3883.623
15.72998	0.5212307	3911.16
15.8301	0.526309	3937.85
15.9302	0.529036	3961.23
16.0303	0.533435	3985.47
16.1304	0.534713	4008.82
16.2305	0.538844	4033.96
16.3306	0.542167	4058.78
16.4307	0.545782	4080.99
16.5308	0.548676	4105.42
16.6309	0.551885	4130.41
16.731	0.555417	4154.33
16.8311	0.558248	4180.563
16.9312	0.561914	4201.11
17.03125	0.564533	4227.34
17.1313	0.568095	4252.06
17.2314	0.571486	4278.79
17.3315	0.575167	4303.61
17.4316	0.577131	4325.69
17.5317	0.581989	4349.8
17.6318	0.584427	4373.61
17.7319	0.588468	4401
17.832	0.590706	4425.23
17.9321	0.594187	4448.14
18.0322	0.597483	4476.002
18.1323	0.600883	4501.76
18.2324	0.605091	4526.47
18.33252	0.608167	4551.77
18.4326	0.611177	4574.7
18.5327	0.614309	4597.07
18.6328	0.617737	4624.05
18.73291	0.621486	4647.73
18.833	0.625414	4671.48
18.9331	0.6275624	4697.78
19.0332	0.63138	4719.84
19.1333	0.634518	4745.36
19.2334	0.638682	4772.11
19.3335	0.640941	4794.55
19.4336	0.644621	4821.06
19.5337	0.6477505	4846.11
19.6338	0.65217	4871.38
19.7339	0.654653	4894.54
19.834	0.657624	4920.2
19.9341	0.661764	4944.22
20.03418	0.665325	4966.75
20.1343	0.667483	4991.25
20.2344	0.671837	5019.45
20.3345	0.674954	5042.87
20.43457	0.678539	5069.39
20.5347	0.6807	5092.78
20.6348	0.68405	5117.13
20.7349	0.687262	5140.27
20.835	0.691161	5165.42
20.9351	0.694296	5191.91
21.0352	0.698274	5216.667
21.1353	0.701386	5240.813
21.2354	0.704175	5265.03
21.3354	0.707531	5288.89
21.4355	0.711003	5314.27
21.5356	0.715178	5339.396
21.6357	0.718194	5363.895
21.73584	0.72147	5385.1
21.8359	0.725099	5411.09
21.936	0.7276386	5434.95
22.0361	0.731012	5457.02
22.13623	0.734749	5484.57
22.2363	0.7379	5507.36
22.3364	0.741005	5531.76
22.4365	0.744891	5556.792
22.5366	0.747803	5582.41
22.6367	0.751206	5606.65
22.7368	0.7545352	5633.84
22.8369	0.7583797	5655.67
22.937	0.760624	5681.01
23.0371	0.764614	5704.83
23.1372	0.7689476	5730.77
23.2373	0.770852	5753.72
23.3374	0.774768	5778.92
23.4375	0.7792145	5800.68
23.5376	0.782105	5824.73
23.6377	0.785568	5850.96
23.7378	0.789106	5874.43
23.8379	0.791913	5898.64
23.938	0.7946372	5922.14
24.0381	0.798073	5946.12
24.1382	0.800717	5970.4
24.2383	0.804228	5996.16
24.3384	0.807071	6014.6
24.4385	0.812218	6046.12
24.5386	0.815549	6070.58
24.6387	0.817865	6094.57
24.73877	0.821793	6119.27
24.8389	0.825161	6142.71
24.939	0.828442	6166.13
25.0391	0.831044	6187.25
25.13916	0.834191	6212.74
25.2393	0.8380264	6240.91
25.3394	0.840706	6264.55
25.4395	0.844884	6289.14
25.5396	0.848559	6312.28
25.6396	0.853303	6337.98
25.7397	0.854531	6360.5
25.8398	0.859088	6385.47
25.9399	0.861678	6410.18
26.04	0.864747	6435.34
26.1401	0.868148	6458.11
26.2402	0.872388	6483.397
26.3403	0.874615	6505.57
26.44043	0.878671	6533.74
26.5405	0.882244	6557.15
26.6406	0.8861959	6581.72
26.7407	0.8888185	6604.16
26.84082	0.891379	6626.53
26.9409	0.895882	6649.34
27.041	0.8987397	6675.71
27.1411	0.901547	6699.479
27.2412	0.9049356	6724.01
27.3413	0.908402	6748.38
27.4414	0.912452	6770.2
27.5415	0.915569	6794.06
27.6416	0.919458	6820.63
27.7417	0.921544	6845.63
27.8418	0.92496	6870.231
27.9419	0.929016	6895.61
28.042	0.93244	6917.63
28.14209	0.936392	6942.15
28.2422	0.938377	6966.66
28.3423	0.942612	6989.99
28.4424	0.944754	7007.76
28.54248	0.947967	7034.77
28.6426	0.952011	7060.45
28.7427	0.955558	7085.84
28.8428	0.958428	7109.84
28.9429	0.962299	7134.66
29.043	0.965455	7159.81
29.1431	0.968161	7182.2
29.2432	0.97155	7207.91
29.3433	0.9760946	7233.52
29.4434	0.979993	7257.09
29.5435	0.981784	7280.64
29.6436	0.985825	7303.44
29.7437	0.988671	7326.75
29.84375	0.992882	7350.39
29.9438	0.9955734	7374.2
30.0439	0.999585	7397.88
30.144	1.00208	7422.32
30.2441	1.00488	7444.28
30.3442	1.00909	7471.6
30.4443	1.01216	7495.61
30.5444	1.01676	7516.61
30.6445	1.01974	7540.06
30.7446	1.020658	7564.7
30.8447	1.02525	7591.46
30.9448	1.02868	7614.24
31.0449	1.03144	7638.41
31.14502	1.03466	7664.72
31.2451	1.03781	7688.76
31.3452	1.0415	7710.74
31.4453	1.045531	7735.51
31.54541	1.04872	7760.98
31.6455	1.052615	7783.73
31.7456	1.05526	7808.16
31.8457	1.05922	7829.37
31.9458	1.0622	7853.84
32.0459	1.0657	7878.228
32.146	1.0689	7902.8
32.2461	1.07261	7929.1
32.3462	1.07527	7949.91
32.4463	1.07867	7973.06
32.5464	1.08177	7996.86
32.6465	1.08582	8020.55
32.7466	1.08918	8044.74
32.84668	1.09236	8067.39
32.9468	1.09453	8091.88
33.0469	1.09843	8115.86
33.147	1.10202	8138.51
33.24707	1.105392	8161.63
33.3472	1.10845	8186.2
33.4473	1.11248	8211.67
33.5474	1.11731	8238.6
33.6475	1.119265	8266.26
33.7476	1.12314	8289.39
33.8477	1.12652	8313.49
33.9478	1.13014	8334.27
34.0479	1.13232	8357.08
34.1479	1.136905	8379.49
34.248	1.13869	8401.85
34.3481	1.14258	8428.8
34.4482	1.14513	8448.97
34.54834	1.14879	8473.7
34.6484	1.153025	8498.42
34.7485	1.15651	8527.59
34.8486	1.160112	8552.32
34.94873	1.163736	8573.34
35.0488	1.16642	8596.36
35.1489	1.17023	8614.19
35.249	1.17235	8638.8
35.3491	1.17641	8661.2
35.4492	1.180014	8687.21
35.5493	1.18377	8714.57
35.6494	1.18753	8738.62
35.7495	1.19037	8762.55
35.8496	1.19408	8786.07
35.9497	1.19697	8808.28
36.0498	1.19992	8828.43
36.1499	1.20373	8853.01
36.25	1.20649	8875.41
36.3501	1.209268	8898.72
36.4502	1.212272	8921.87
36.5503	1.216	8944.44
36.6504	1.21951	8967.26
36.7505	1.22284	8990.95
36.8506	1.22577	9014.92
36.9507	1.22908	9034.665
37.0508	1.2314	9059.95
37.1509	1.23596	9081.88
37.251	1.23933	9106.18
37.3511	1.24266	9131.19
37.4512	1.24609	9155.48
37.55127	1.24936	9179.82
37.6514	1.25251	9202.06
37.7515	1.256901	9224.69
37.8516	1.25809	9246.84
37.95166	1.26149	9271.26
38.0518	1.26663	9294.96
38.1519	1.26857	9318.12
38.252	1.27218	9344.61
38.3521	1.27557	9366.98
38.4521	1.27989	9390.57
38.5522	1.28191	9412.22
38.6523	1.28623	9435.46
38.7524	1.28937	9458.17
38.8525	1.29281	9481.37
38.9526	1.29667	9508.89
39.0527	1.29782	9529.99
39.1528	1.30142	9554.85
39.25293	1.30581	9578.93
39.353	1.30939	9600.53
39.4531	1.31274	9624.41
39.5532	1.31588	9647.65
39.65332	1.31921	9671.84
39.7534	1.32246	9694.084
39.8535	1.32573	9718.28
39.9536	1.3306	9741.24
40.0537	1.33269	9761.999
40.1538	1.33553	9785.73
40.2539	1.33966	9810.34
40.354	1.34323	9836.01
40.4541	1.34559	9857.99
40.5542	1.34953	9880.02
40.6543	1.352033	9904.1
40.7544	1.35602	9928.23
40.8545	1.35964	9952.68
40.95459	1.36213	9977.44
41.0547	1.36607	10002.15
41.1548	1.37125	10020.92
41.2549	1.37285	10045.572
41.35498	1.376611	10071.631
41.4551	1.37941	10094.229
41.5552	1.38261	10115.821
41.6553	1.38636	10142.653
41.7554	1.38964	10165.543
41.8555	1.39184	10187.047
41.9556	1.39603	10209.886
42.0557	1.39963	10231.713
42.1558	1.40294	10258.276
42.2559	1.40658	10284.571
42.356	1.41014	10306.057
42.4561	1.41282	10328.202
42.5562	1.417011	10349.724
42.65625	1.41967	10372.437
42.7563	1.4228	10394.691
42.8564	1.42633	10418.492
42.9565	1.42934	10439.302
43.0566	1.43205	10463
43.1567	1.43641	10487.887
43.2568	1.43923	10512.232
43.3569	1.44283	10535.216
43.457	1.44659	10557.916
43.5571	1.449126	10577.695
43.6572	1.4526	10601.048
43.7573	1.45601	10622.104
43.8574	1.45902	10646.288
43.95752	1.46344	10668.412
44.0576	1.46639	10693.27
44.1577	1.4689	10715.934
44.2578	1.4711	10737.182
44.35791	1.47542	10760.904
44.458	1.48005	10785.972
44.5581	1.48408	10810.793
44.6582	1.48548	10829.318
44.7583	1.48903	10854.21
44.8584	1.49318	10878.051
44.9585	1.49594	10900.335
45.0586	1.49958	10922.749
45.1587	1.50287	10945.232
45.2588	1.50715	10967.631
45.3589	1.50834	10990.516
45.459	1.51212	11012.407
45.5591	1.51552	11035.655
45.65918	1.51987	11061.908
45.7593	1.52297	11086.309
45.8594	1.52569	11106.893
45.9595	1.52922	11132.748
46.05957	1.532805	11155.146
46.1597	1.53605	11176.632
46.2598	1.53914	11199.362
46.3599	1.54277	11223.615
46.46	1.54596	11245.991
46.5601	1.55094	11266.328
46.6602	1.55209	11288.14
46.7603	1.55562	11311.313
46.8604	1.55952	11333.098
46.9604	1.56206	11360.06
47.0605	1.56595	11380.708
47.1606	1.56915	11404.823
47.2607	1.57239	11429.926
47.36084	1.57625	11453.19
47.4609	1.57896	11474.699
47.561	1.58231	11499.855
47.6611	1.584956	11523.075
47.76123	1.589635	11546.38
47.8613	1.59327	11570.116
47.9614	1.59572	11589.528
48.0615	1.59946	11612.085
48.1616	1.60243	11636.31
48.2617	1.60604	11659.714
48.3618	1.60884	11680.252
48.4619	1.61252	11703.551
48.562	1.615715	11728.723
48.6621	1.61909	11749.301
48.7622	1.62263	11774.607
48.8623	1.62674	11797.816
48.9624	1.6307	11821.044
49.0625	1.63316	11842.882
49.1626	1.63599	11865.286
49.2627	1.639235	11888.492
49.3628	1.64247	11910.633
49.4629	1.64721	11935.805
49.563	1.64928	11956.063
49.6631	1.65336	11982.649
49.7632	1.656729	12003.008
49.8633	1.65939	12028.161
49.9634	1.66371	12050.492
50.0635	1.666218	12075.314
50.1636	1.66969	12093.399
50.2637	1.67299	12118.254
50.36377	1.6762	12139.388
50.4639	1.67986	12162.117
50.564	1.68224	12185.008
50.6641	1.68638	12205.465
50.76416	1.68938	12232.226
50.8643	1.69373	12255.249
50.9644	1.69679	12276.713
51.0645	1.70167	12306.76
51.1646	1.70411	12327.45
51.2646	1.70701	12352.703
51.3647	1.70996	12372.983
51.4648	1.71275	12395.228
51.5649	1.71666	12416.939
51.665	1.71981	12439.889
51.7651	1.72244	12461.407
51.8652	1.72649	12482.199
51.9653	1.728946	12505.718
52.06543	1.73295	12527.449
52.1655	1.73552	12552.875
52.2656	1.73996	12576.07
52.3657	1.74348	12598.775
52.46582	1.74578	12622.569
52.5659	1.74931	12646.857
52.666	1.75416	12669.356
52.7661	1.757133	12691.544
52.8662	1.761207	12712.634
52.9663	1.76317	12732.808
53.0664	1.7675	12756.896
53.1665	1.77022	12780.199
53.2666	1.774013	12804.796
53.3667	1.77606	12824.117
53.4668	1.77969	12849.199
53.5669	1.78259	12868.66
53.667	1.78561	12890.896
53.76709	1.78935	12915.682
53.8672	1.79313	12936.981
53.9673	1.79707	12961.109
54.0674	1.8003	12983.194
54.16748	1.80394	13006.204
54.2676	1.80656	13028.308
54.3677	1.80966	13051.19
54.4678	1.81242	13073.462
54.5679	1.81584	13095.904
54.668	1.81938	13117.686
54.7681	1.82421	13140.735
54.8682	1.82585	13163.054
54.9683	1.82913	13185.044
55.0684	1.83266	13210.37
55.1685	1.8356	13232.475
55.2686	1.83995	13254.326
55.3687	1.84396	13277.294
55.46875	1.847136	13299.551
55.5688	1.84996	13321.828
55.6689	1.8523	13344.584
55.769	1.85699	13368.166
55.8691	1.85986	13388.1
55.9692	1.86287	13411.12
56.0693	1.86595	13433.386
56.1694	1.87047	13456.479
56.2695	1.87272	13477.234
56.3696	1.87587	13498.249
56.4697	1.87909	13521.395
56.5698	1.88176	13543.219
56.6699	1.88704	13565.06
56.77002	1.88984	13588.134
56.8701	1.89264	13613.478
56.9702	1.89661	13634.673
57.0703	1.89942	13656.323
57.17041	1.9027	13679.442
57.2705	1.90664	13703.637
57.3706	1.90958	13724.906
57.4707	1.91312	13746.301
57.5708	1.9167	13769.721
57.6709	1.91986	13793.52
57.771	1.92348	13816.148
57.8711	1.9276	13837.012
57.9712	1.93002	13860.372
58.0713	1.93284	13882.609
58.1714	1.93702	13905.749
58.2715	1.93974	13927.475
58.3716	1.94505	13950.264
58.47168	1.94505	13972.337
58.5718	1.95012	13994.836
58.6719	1.95256	14018.396
58.772	1.95661	14039.513
58.87207	1.96005	14062.828
58.9722	1.96341	14085.898
59.0723	1.96671	14108.717
59.1724	1.96962	14130.858
59.2725	1.97268	14154.333
59.3726	1.976952	14177.272
59.4727	1.97983	14200.774
59.5728	1.98303	14220.978
59.6729	1.98658	14246.364
59.7729	1.98975	14267.687
59.873	1.99313	14289.346
59.9731	1.99634	14312.381
60.0732	1.99983	14334.506
60.17334	2.00336	14356.945
60.2734	2.00671	14378.645
60.3735	2.00945	14396.892
60.4736	2.01257	14420.13
60.57373	2.01682	14445.176
60.6738	2.019161	14469.056
60.7739	2.02436	14490.502
60.874	2.02695	14510.43
60.9741	2.02968	14533.163
61.0742	2.03253	14555.985
61.1743	2.03688	14578.929
61.2744	2.03887	14602.903
61.3745	2.04278	14624.484
61.4746	2.04736	14646.985
61.5747	2.05018	14668.529
61.6748	2.05379	14691.167
61.7749	2.055922	14714.465
61.875	2.05999	14735.629
61.9751	2.06248	14758.017
62.0752	2.06644	14779.821
62.1753	2.06913	14800.786
62.2754	2.07299	14823.584
62.3755	2.07724	14845.081
62.4756	2.07975	14867.92
62.5757	2.084002	14889.637
62.6758	2.08699	14914.205
62.7759	2.09	14936.155
62.876	2.09371	14956.61
62.9761	2.09637	14978.475
63.0762	2.09903	15002.97
63.17627	2.10297	15023.291
63.2764	2.10695	15044.438
63.3765	2.10957	15066
63.4766	2.11211	15089.582
63.57666	2.11695	15112.354
63.6768	2.11994	15133.934
63.7769	2.12262	15156.676
63.877	2.12672	15180.929
63.9771	2.13021	15203.711
64.0771	2.13411	15222.793
64.1772	2.13669	15246.767
64.2773	2.14011	15265.8
64.3774	2.142653	15289.677
64.4775	2.14597	15312.68
64.5776	2.150321	15333.603
64.6777	2.153614	15356.257
64.7778	2.15657	15376.323
64.87793	2.15915	15396.729
64.978	2.1631	15420.977
65.0781	2.16782	15446.096
65.1782	2.16939	15468.226
65.27832	2.17364	15492.779
65.3784	2.17748	15514.844
65.4785	2.17998	15533.169
65.5786	2.18383	15557.274
65.6787	2.1873	15579.062
65.7788	2.189821	15600.89
65.8789	2.19333	15623.449
65.979	2.1966	15644.497
66.0791	2.19904	15667.171
66.1792	2.20262	15686.938
66.2793	2.20547	15708.866
66.3794	2.21064	15732.523
66.4795	2.21304	15756.508
66.57959	2.216351	15774.146
66.6797	2.2193	15797.608
66.7798	2.22376	15822.083
66.8799	2.22575	15841.732
66.97998	2.22925	15863.605
67.0801	2.23437	15885.916
67.1802	2.2365	15907.901
67.2803	2.24043	15930.752
67.3804	2.24429	15951.683
67.4805	2.2462	15974.648
67.5806	2.25055	15997.949
67.6807	2.25356	16020.231
67.7808	2.257493	16043.314
67.8809	2.25955	16065.6
67.981	2.2632	16087.465
68.0811	2.26727	16107.846
68.1812	2.27012	16130.638
68.28125	2.27375	16151.463
68.3813	2.276969	16174.026
68.4814	2.27991	16195.215
68.5815	2.28391	16211.075
68.6816	2.28583	16236.21
68.7817	2.28943	16261.022
68.8818	2.29319	16281.618
68.9819	2.29664	16305.48
69.082	2.30059	16327.333
69.1821	2.30354	16350.084
69.2822	2.30587	16372.259
69.3823	2.30989	16397.166
69.4824	2.31413	16415.996
69.58252	2.31687	16438.234
69.6826	2.32082	16458.645
69.7827	2.323875	16481.813
69.8828	2.32802	16501.469
69.98291	2.33061	16522.803
70.083	2.33316	16543.32
70.1831	2.3377	16564.973
70.2832	2.34196	16585.65
70.3833	2.34279	16606.219
70.4834	2.34611	16629.684
70.5835	2.35044	16657.109
70.6836	2.354461	16680.674
70.7837	2.35733	16698.309
70.8838	2.35979	16719.791
70.9839	2.363029	16743.564
71.084	2.36745	16769.234
71.1841	2.37014	16791.67
71.28418	2.37472	16812.734
71.3843	2.37648	16833.07
71.4844	2.38048	16857.582
71.5845	2.38366	16878.504
71.68457	2.38712	16901.373
71.7847	2.3906	16920.873
71.8848	2.39281	16940.588
71.9849	2.396801	16964.322
72.085	2.40009	16986.689
72.1851	2.40447	17010.248
72.2852	2.40773	17031.457
72.3853	2.40992	17053.086
72.4854	2.41352	17073.383
72.5854	2.41716	17094.221
72.6855	2.4199	17115.85
72.7856	2.42329	17138.223
72.8857	2.42755	17161.943
72.98584	2.4306	17181.648
73.0859	2.43335	17203.445
73.186	2.4371	17226.545
73.2861	2.44066	17247.309
73.38623	2.44441	17267.92
73.4863	2.44695	17288.711
73.5864	2.45053	17310.973
73.6865	2.45374	17333.102
73.7866	2.45658	17355.92
73.8867	2.46054	17377.104
73.9868	2.46396	17399.535
74.0869	2.46716	17422.404
74.187	2.47047	17444.65
74.2871	2.47321	17466.49
74.3872	2.47668	17483.225
74.4873	2.48021	17506.027
74.5874	2.48349	17531.303
74.6875	2.487272	17555.004
74.7876	2.49069	17574.459
74.8877	2.49422	17595.213
74.9878	2.49724	17617.574
75.0879	2.50017	17638.707
75.188	2.50479	17658.355
75.2881	2.50726	17679.752
75.3882	2.510777	17697.98
75.4883	2.51208	17719.596
75.5884	2.51639	17745.389
75.6885	2.52086	17767.512
75.7886	2.5229	17789.832
75.8887	2.52773	17811.939
75.98877	2.53082	17832.801
76.0889	2.53347	17854.037
76.189	2.53737	17876.27
76.2891	2.5403	17896.35
76.38916	2.54255	17917.359
76.4893	2.54709	17939.996
76.5894	2.55041	17959.32
76.6895	2.55396	17982.992
76.7896	2.55736	18003.131
76.8896	2.56046	18025.355
76.9897	2.56429	18045.74
77.0898	2.56579	18066.168
77.1899	2.57087	18089.893
77.29	2.57459	18110.873
77.3901	2.57748	18132.414
77.4902	2.579844	18153.221
77.5903	2.583915	18176.809
77.69043	2.58805	18199.449
77.7905	2.5908	18219.441
77.8906	2.59317	18243.039
77.9907	2.59779	18263.076
78.09082	2.60118	18285.357
78.1909	2.60353	18307.564
78.291	2.60801	18327.428
78.3911	2.61023	18348.992
78.4912	2.61476	18372.75
78.5913	2.61728	18391.951
78.6914	2.62144	18412.809
78.7915	2.62405	18433.352
78.8916	2.628	18452.568
78.9917	2.62932	18473.301
79.0918	2.63328	18495.572
79.1919	2.63687	18518.668
79.292	2.64058	18543.678
79.39209	2.64333	18562.477
79.4922	2.64747	18583.326
79.5923	2.6487	18606.643
79.6924	2.653286	18627.146
79.79248	2.6563	18648.795
79.8926	2.66032	18669.605
79.9927	2.6641	18693.418
80.0928	2.6665	18712.41
80.1929	2.67168	18734.543
80.293	2.67308	18754.348
80.3931	2.67663	18777.012
80.4932	2.68017	18799.271
80.5933	2.68362	18821.717
80.6934	2.68745	18842.336
80.7935	2.69108	18860.979
80.8936	2.69394	18880.598
80.9937	2.69629	18904.176
81.09375	2.7003	18927.938
81.1938	2.70492	18948.656
81.2939	2.70697	18970.766
81.394	2.71061	18992.906
81.4941	2.71491	19011.104
81.5942	2.71685	19032.293
81.6943	2.72091	19051.43
81.7944	2.72354	19072.121
81.8945	2.72714	19090.131
81.9946	2.73035	19113.594
82.0947	2.733326	19137.816
82.1948	2.73652	19159.959
82.2949	2.74029	19182.059
82.39502	2.7432	19201.945
82.4951	2.74692	19223.391
82.5952	2.75033	19245.074
82.6953	2.75403	19264.574
82.79541	2.75664	19286.711
82.8955	2.76079	19306.23
82.9956	2.76363	19330.17
83.0957	2.76795	19357.783
83.1958	2.77152	19380.293
83.2959	2.774477	19401.975
83.396	2.77832	19422.707
83.4961	2.78069	19443.275
83.5962	2.78527	19435.328
83.6963	2.78777	19455.004
83.7964	2.79151	19475.535
83.8965	2.79436	19495.941
83.9966	2.79845	19515.037
84.09668	2.79999	19533.836
84.1968	2.80326	19556.109
84.2969	2.80709	19577.414
84.397	2.81063	19602.26
84.49707	2.81376	19623.307
84.5972	2.816865	19644.143
84.6973	2.81966	19663.814
84.7974	2.8242	19685.939
84.8975	2.82727	19706.068
84.9976	2.83108	19727.781
85.0977	2.8339	19749.967
85.1978	2.83735	19773.52
85.2979	2.84087	19793
85.3979	2.843684	19812.471
85.498	2.8471	19835.582
85.5981	2.85063	19858.684
85.6982	2.854085	19877.617
85.79834	2.85736	19898.523
85.8984	2.8602	19919.225
85.9985	2.86398	19941.102
86.0986	2.86703	19961
86.19873	2.8709	19983.094
86.2988	2.87329	20004.326
86.3989	2.87761	20023.805
86.499	2.88025	20045.555
86.5991	2.88444	20065.877
86.6992	2.88766	20086.109
86.7993	2.89024	20106.615
86.8994	2.8947	20128.713
86.9995	2.89729	20146.674
87.0996	2.900353	20169.293
87.1997	2.90341	20192.148
87.2998	2.90675	20211.287
87.3999	2.91013	20234.768
87.5	2.91382	20257.438
87.6001	2.91675	20278.705
87.7002	2.92101	20298.344
87.8003	2.92461	20319.699
87.9004	2.927032	20338.629
88.0005	2.9297	20359.822
88.1006	2.934	20378.494
88.2007	2.93754	20398.385
88.3008	2.94039	20417.295
88.4009	2.94274	20439.035
88.501	2.94704	20460.984
88.6011	2.95076	20484.354
88.7012	2.95365	20504.596
88.80127	2.95653	20524.68
88.9014	2.9601	20545.438
89.0015	2.96342	20567.428
89.1016	2.9669	20588.4
89.20166	2.97153	20612.889
89.3018	2.974412	20634.889
89.4019	2.97869	20656.074
89.502	2.98069	20675.521
89.6021	2.98458	20695.789
89.7021	2.98789	20714.852
89.8022	2.990061	20733.85
89.9023	2.99418	20755.188
90.0024	2.998364	20776.012
90.1025	3.00077	20795.074
90.2026	3.00373	20814.414
90.3027	3.00766	20834.91
90.4028	3.0105	20856.857
90.50293	3.01448	20876.855
90.603	3.01738	20896.938
90.7031	3.02061	20917.844
90.8032	3.02349	20942.693
90.90332	3.027925	20964.15
91.0034	3.031081	20985.289
91.1035	3.03363	20999.859
91.2036	3.037241	21023.324
91.3037	3.04134	21044.555
91.4038	3.04357	21064.686
91.5039	3.04762	21085.916
91.604	3.05071	21103.988
91.7041	3.05471	21123.639
91.8042	3.05668	21143.695
91.9043	3.06181	21163.408
92.0044	3.06479	21184.291
92.1045	3.067	21206.248
92.20459	3.07044	21227.504
92.3047	3.07469	21247.648
92.4048	3.07688	21268.809
92.5049	3.08041	21288.84
92.60498	3.08446	21308.637
92.7051	3.08726	21328
92.8052	3.09097	21350.965
92.9053	3.09405	21371.23
93.0054	3.09762	21389.027
93.1055	3.10179	21410.262
93.2056	3.10324	21426.609
93.3057	3.10835	21383.506
93.4058	3.11167	21400.924
93.5059	3.11597	21422.172
93.606	3.11767	21441.381
93.7061	3.12114	21461.477
93.8062	3.12501	21482.219
93.90625	3.12768	21500.488
94.0063	3.13201	21518.686
94.1064	3.1348	21537.668
94.2065	3.13727	21557.576
94.3066	3.14047	21576.225
94.4067	3.14427	21597.93
94.5068	3.14719	21617.729
94.6069	3.150454	21636.275
94.707	3.15427	21657.174
94.8071	3.15794	21677.92
94.9072	3.16081	21697.08
95.0073	3.16475	21716.26
95.1074	3.16793	21736.539
95.20752	3.17169	21756.617
95.3076	3.17395	21777.678
95.4077	3.17766	21794.84
95.5078	3.180474	21814.861
95.60791	3.18481	21834.064
95.708	3.18804	21856.127
95.8081	3.191787	21875.688
95.9082	3.19498	21895.629
96.0083	3.19849	21915.723
96.1084	3.20221	21937.182
96.2085	3.20439	21956.777
96.3086	3.20781	21977.533
96.4087	3.21002	21992.281
96.5088	3.21384	22015.051
96.6089	3.21769	22035.488
96.709	3.22099	22056.219
96.8091	3.2238	22073.893
96.90918	3.22769	22095.867
97.0093	3.2318	22114.58
97.1094	3.23469	22049.77