File: dublin_poster_plots/Tensile Tests - Quenched Samples 20180604/BLPX-M1-Q045-06_20180604/specimen.dat
MTS793|MPT|ENU|1|2|.|/|:|1|0|0|A

Data Acquisition						Time:	64.9702	s	6/4/2018 4:29:09 PM
Time	MTS 4 Displacement 4	MTS 4 Force 4
s	mm	N
0.114258	-6.25849e-05	-23.2515
0.214355	0.00247955	-19.4072
0.314453	0.00560582	-11.0573
0.414551	0.0077188	-3.7889
0.514648	0.0117034	7.23517
0.614746	0.0136882	17.8739
0.714844	0.0174582	29.3714
0.814941	0.0220507	38.4958
0.915039	0.0249326	48.65667
1.01514	0.0273496	60.4001
1.11523	0.0307053	69.91848
1.215332	0.0344515	81.1407
1.31543	0.03682375	89.5549
1.41553	0.0402719	102.186
1.515625	0.044325	111.26
1.61572	0.0470459	122.466
1.71582	0.0504971	135.1012
1.815918	0.0535369	146.216
1.91602	0.0570238	158.371
2.01611	0.0606507	166.938
2.11621	0.0642389	174.352
2.21631	0.0670791	186.36
2.31641	0.0696987	194.116
2.4165	0.0741094	205.968
2.5166	0.0776112	217.232
2.6167	0.0799119	228.217
2.7168	0.0827551	239.722
2.81689	0.0869334	244.831
2.91699	0.091967	259.148
3.01709	0.0931054	271.897
3.11719	0.0963211	279.799
3.21729	0.100517	293.806
3.31738	0.103581	306.6
3.41748	0.108141	318.628
3.51758	0.10874	329.904
3.61768	0.112575	345.076
3.71777	0.115955	359.314
3.81787	0.120136	372.938
3.91797	0.122309	389.013
4.01807	0.1275152	404.211
4.11816	0.130835	417.033
4.21826	0.132778	432.942
4.31836	0.136456	446.513
4.418457	0.1396358	462.542
4.51855	0.143525	478.57
4.61865	0.146049	495.225
4.71875	0.149494	509.557
4.81885	0.152907	526.895
4.91895	0.156474	543.126
5.019043	0.1593262	554.05
5.11914	0.16312	569.063
5.21924	0.1654923	586.816
5.31934	0.169072	600.1181
5.41943	0.173023	615.236
5.51953	0.175887	630.78
5.61963	0.178897	648.791
5.71973	0.183049	664.747
5.81982	0.185838	681.754
5.91992	0.18909	696.523
6.02002	0.192723	710.12
6.12012	0.196248	724.571
6.22021	0.199541	742.519
6.32031	0.202903	758.594
6.42041	0.206262	777.019
6.52051	0.209829	795.147
6.62061	0.213218	813.732
6.7207	0.215888	830.307
6.8208	0.218588	834.968
6.9209	0.222257	853.647
7.021	0.225765	870.772
7.12109	0.230488	890.502
7.22119	0.2330035	907.113
7.32129	0.235504	926.369
7.42139	0.239116	944.75
7.52148	0.242162	963.155
7.621582	0.246516	980.625
7.72168	0.248826	997.062
7.82178	0.2527386	1014.864
7.921875	0.255978	1032.71
8.02197	0.258711	1051.4
8.12207	0.2628088	1065.13
8.222168	0.265649	1082.24
8.32227	0.26933	1101.326
8.42236	0.273114	1117.86
8.52246	0.276643	1135.71
8.62256	0.279352	1153.77
8.72266	0.28345	1171.288
8.82275	0.286341	1190.81
8.92285	0.289601	1210.55
9.02295	0.293335	1228.124
9.12305	0.295913	1244.07
9.22314	0.299633	1262.42
9.32324	0.303653	1278.85
9.42334	0.30683	1297.01
9.52344	0.309315	1314.181
9.62354	0.312141	1333.26
9.72363	0.316116	1350.48
9.82373	0.319237	1366.23
9.92383	0.322643	1384.57
10.0239	0.325954	1402.5
10.124	0.329366	1418.52
10.2241	0.332376	1435.1
10.3242	0.335884	1453.04
10.4243	0.340146	1474.01
10.5244	0.34188	1489.15
10.6245	0.347045	1506.635
10.7246	0.348955	1525.15
10.8247	0.35288	1542.99
10.9248	0.3565222	1561.16
11.0249	0.359344	1579.813
11.125	0.362253	1598.097
11.2251	0.3662765	1617.45
11.3252	0.369248	1632.62
11.4253	0.372878	1651.19
11.5254	0.376201	1667.5
11.6255	0.379694	1688.43
11.7256	0.384277	1706.27
11.8257	0.386271	1722.64
11.9258	0.390217	1739.25
12.0259	0.393456	1758.39
12.126	0.395381	1774.97
12.2261	0.400499	1787.5
12.3262	0.402254	1804.24
12.42627	0.406012	1822.49
12.5264	0.409481	1840.87
12.6265	0.414073	1858.47
12.7266	0.416589	1876.82
12.82666	0.420257	1895.37
12.9268	0.423479	1912.42
13.0269	0.426689	1932.25
13.127	0.429779	1949.79
13.2271	0.4339695	1965
13.3271	0.43726	1980.68
13.4272	0.440294	1996.41
13.5273	0.443727	2014.97
13.6274	0.447416	2031.13
13.7275	0.452775	2048.76
13.8276	0.4542321	2066.876
13.9277	0.455862	2085.51
14.0278	0.459898	2101.2
14.12793	0.46418	2118.32
14.228	0.467056	2138.58
14.3281	0.470766	2157.97
14.4282	0.474709	2177.61
14.52832	0.4778	2194.626
14.6284	0.4805088	2212.44
14.7285	0.484371	2234.071
14.8286	0.487909	2252.61
14.9287	0.491133	2271.8
15.0288	0.49583	2289.37
15.1289	0.499606	2309.73
15.229	0.502306	2330.01
15.3291	0.505728	2347.33
15.4292	0.509459	2365.19
15.5293	0.512359	2382.83
15.6294	0.515014	2399.77
15.7295	0.520143	2419.25
15.82959	0.523344	2437.78
15.9297	0.5284667	2451.41
16.0298	0.529671	2467.72
16.1299	0.53446	2486.76
16.22998	0.5364418	2499.98
16.3301	0.539729	2516.67
16.4302	0.54369	2532.57
16.5303	0.546303	2549.21
16.6304	0.548893	2568.14
16.7305	0.552541	2584.83
16.8306	0.556627	2604.69
16.9307	0.5615592	2629.63
17.0308	0.566077	2654.32
17.1309	0.570577	2676.96
17.231	0.573435	2694.46
17.3311	0.578034	2716.76
17.4312	0.585827	2761.96
17.53125	0.592124	2793.313
17.6313	0.594661	2813.14
17.7314	0.599268	2826.76
17.8315	0.602487	2838.97
17.9316	0.60614	2851.14
18.0317	0.6075561	2867.7
18.1318	0.609961	2885.05
18.2319	0.613669	2901.26
18.332	0.616491	2915.854
18.4321	0.62018	2932.29
18.5322	0.621694	2946.78
18.6323	0.6255	2962.67
18.7324	0.628489	2975.28
18.83252	0.631365	2991.165
18.9326	0.635314	3007.5
19.0327	0.637951	3024.938
19.1328	0.6408751	3041.459
19.23291	0.642636	3056.67
19.333	0.646859	3072.18
19.4331	0.649184	3087.15
19.5332	0.652206	3103.01
19.6333	0.65484	3119.66
19.7334	0.658804	3137.73
19.8335	0.661525	3153.15
19.9336	0.665405	3168.47
20.0337	0.667569	3187.61
20.1338	0.671214	3204.32
20.2339	0.673819	3220.53
20.334	0.676331	3237.02
20.4341	0.680938	3250.83
20.53418	0.683776	3266.39
20.6343	0.686646	3284.32
20.7344	0.690314	3301.48
20.8345	0.692925	3318.3
20.93457	0.696439	3334.13
21.0347	0.699908	3349.98
21.1348	0.702724	3367
21.2349	0.70582	3384.22
21.335	0.708988	3399.82
21.4351	0.711289	3412.22
21.5352	0.713611	3426.08
21.6353	0.716734	3442.74
21.7354	0.71983	3463.34
21.8354	0.723273	3481.96
21.9355	0.7278949	3502.28
22.0356	0.730234	3518.3
22.1357	0.732902	3536.74
22.23584	0.737184	3560.814
22.3359	0.7424742	3585.86
22.436	0.745878	3605.36
22.5361	0.749174	3625.043
22.63623	0.752148	3642.7
22.7363	0.755373	3658.05
22.8364	0.758818	3674.01
22.9365	0.761652	3691.42
23.0366	0.766307	3707.35
23.1367	0.768274	3722.562
23.2368	0.770295	3739.68
23.3369	0.774157	3756.43
23.437	0.778013	3775.15
23.5371	0.780219	3792.89
23.6372	0.783265	3810.51
23.7373	0.78595	3829.35
23.8374	0.790831	3845.17
23.9375	0.79428	3865.87
24.0376	0.797129	3882.26
24.1377	0.800076	3902.41
24.2378	0.804445	3922.6
24.3379	0.807872	3940.15
24.438	0.811058	3958.17
24.5381	0.814569	3975.84
24.6382	0.817108	3991.7
24.7383	0.820965	4007.4
24.8384	0.824359	4023.92
24.9385	0.826776	4042.85
25.0386	0.830394	4057.75
25.1387	0.833276	4077.86
25.23877	0.836968	4095.44
25.3389	0.840518	4113.92
25.439	0.844109	4133.13
25.5391	0.8477	4152.24
25.63916	0.85012	4166.48
25.7393	0.853574	4186.15
25.8394	0.856629	4204.66
25.9395	0.860658	4224.88
26.0396	0.863665	4243.05
26.1396	0.8670181	4258.97
26.2397	0.870892	4277.88
26.3398	0.873882	4295.63
26.4399	0.877342	4311.54
26.54	0.879732	4328.72
26.6401	0.883645	4344.74
26.7402	0.886858	4363.92
26.8403	0.890496	4384.48
26.94043	0.893316	4403.29
27.0405	0.89727	4421.24
27.1406	0.900254	4440.34
27.2407	0.903577	4461.77
27.34082	0.90799	4481.07
27.4409	0.911039	4500.35
27.541	0.912982	4515.415
27.6411	0.918639	4534.64
27.7412	0.921103	4553.47
27.8413	0.924292	4571.44
27.9414	0.927603	4589.88
28.0415	0.9300679	4608.58
28.1416	0.9349227	4628.394
28.2417	0.936955	4646.543
28.3418	0.939861	4664.42
28.4419	0.943902	4684.25
28.542	0.947809	4704.22
28.64209	0.951251	4724.72
28.7422	0.954741	4741.2
28.8423	0.957042	4761.08
28.9424	0.961265	4778.957
29.04248	0.96395	4799.16
29.1426	0.967234	4815.72
29.2427	0.970626	4834.88
29.3428	0.974804	4854.46
29.4429	0.977713	4874.61
29.543	0.980911	4892.84
29.6431	0.984496	4914.41
29.7432	0.987491	4927.76
29.8433	0.990555	4948.21
29.9434	0.994897	4965.93
30.0435	0.997677	4985.42
30.1436	1.00143	5004.66
30.2437	1.00418	5022.49
30.34375	1.00714	5041.06
30.4438	1.01158	5061.26
30.5439	1.013431	5076.312
30.644	1.017	5095.36
30.7441	1.02063	5116.48
30.8442	1.023826	5134.39
30.9443	1.028499	5154.93
31.0444	1.03101	5171.66
31.1445	1.0346	5189.1
31.2446	1.03742	5207.81
31.3447	1.04191	5228.07
31.4448	1.043576	5243.14
31.5449	1.047343	5261.46
31.64502	1.05132	5282.73
31.7451	1.05407	5298.39
31.8452	1.056397	5316.92
31.9453	1.05999	5338.28
32.04541	1.0638	5357.92
32.1455	1.06682	5376.78
32.2456	1.072067	5389.49
32.3457	1.07502	5410.23
32.4458	1.077649	5428.873
32.5459	1.08221	5447.51
32.646	1.08505	5472.58
32.7461	1.0893	5491.61
32.8462	1.09261	5511.13
32.9463	1.09531	5528.81
33.0464	1.09832	5546.83
33.1465	1.10106	5563.75
33.2466	1.10601	5583.28
33.34668	1.10768	5601.57
33.4468	1.11156	5621.67
33.5469	1.11528	5641
33.647	1.11673	5659.55
33.74707	1.1214	5677.67
33.8472	1.12439	5696.95
33.9473	1.12707	5715.66
34.0474	1.13144	5736.34
34.1475	1.13469	5753.56
34.2476	1.13797	5770.85
34.3477	1.14024	5789.44
34.4478	1.14488	5807.47
34.5479	1.1487	5828.3
34.6479	1.1514	5849.24
34.748	1.15524	5868.56
34.8481	1.15782	5887.375
34.9482	1.16109	5905.84
35.04834	1.164493	5925.32
35.1484	1.16712	5944.21
35.2485	1.17178	5962.77
35.3486	1.174885	5981.96
35.44873	1.177913	5999.83
35.5488	1.18076	6017.45
35.6489	1.18403	6036.9
35.749	1.18764	6056.28
35.8491	1.19019	6076.8
35.9492	1.19491	6095.39
36.0493	1.19739	6116.12
36.1494	1.20161	6134.57
36.2495	1.20418	6152.64
36.3496	1.20811	6172.34
36.4497	1.2117	6192.36
36.5498	1.2147	6209.87
36.6499	1.21779	6230.2
36.75	1.22194	6250.55
36.8501	1.22533	6268.51
36.9502	1.22813	6287.623
37.0503	1.23147	6309.05
37.1504	1.23505	6326.1
37.2505	1.2377	6344.52
37.3506	1.24117	6363.15
37.4507	1.24512	6382.51
37.5508	1.24868	6400.519
37.6509	1.25082	6420.083
37.751	1.2547	6436.64
37.8511	1.25802	6454.37
37.9512	1.26108	6475.51
38.05127	1.26518	6495.53
38.1514	1.26728	6490.91
38.2515	1.27163	6510.82
38.3516	1.27532	6529.93
38.45166	1.27875	6550
38.5518	1.28143	6568.61
38.6519	1.28473	6588.14
38.752	1.288259	6605.74
38.8521	1.29231	6623.16
38.9521	1.295802	6643.62
39.0522	1.29858	6662.01
39.1523	1.30129	6678.94
39.2524	1.30403	6698.083
39.3525	1.30869	6716.53
39.4526	1.3112	6735.29
39.5527	1.3152	6755.957
39.6528	1.31837	6775.33
39.75293	1.322189	6793.08
39.853	1.325956	6812
39.9531	1.3278	6830.76
40.0532	1.33249	6850.15
40.15332	1.33505	6869.647
40.2534	1.33779	6889.66
40.3535	1.34236	6907.29
40.4536	1.34542	6926.22
40.5537	1.34772	6947.72
40.6538	1.35191	6967.05
40.7539	1.35571	6986.66
40.854	1.35841	7004.29
40.9541	1.361528	7024.51
41.0542	1.36471	7043.59
41.1543	1.36774	7065.09
41.2544	1.3721	7085.76
41.3545	1.37489	7105.45
41.45459	1.379	7125.88
41.5547	1.38223	7144.16
41.6548	1.38562	7163.22
41.7549	1.38871	7181.85
41.85498	1.3918	7200.12
41.9551	1.39581	7221.001
42.0552	1.39857	7241.47
42.1553	1.40249	7258.31
42.2554	1.40578	7277.44
42.3555	1.40928	7297.59
42.4556	1.41262	7313.66
42.5557	1.4159	7333
42.6558	1.41829	7349.82
42.7559	1.42052	7364.27
42.856	1.42489	7379.96
42.9561	1.42883	7402.56
43.0562	1.4328	7420.65
43.15625	1.43542	7442.54
43.2563	1.43898	7463.01
43.3564	1.44312	7482.78
43.4565	1.44699	7502.02
43.5566	1.4489	7518.707
43.6567	1.45247	7543.54
43.7568	1.4558	7560.39
43.8569	1.45856	7579.43
43.957	1.46253	7597.42
44.0571	1.466772	7616.31
44.1572	1.46868	7636.13
44.2573	1.473	7655.24
44.3574	1.47592	7674.05
44.45752	1.47956	7692.05
44.5576	1.4824	7709.457
44.6577	1.48584	7728.99
44.7578	1.48911	7746.86
44.85791	1.49263	7763.75
44.958	1.49565	7784.854
45.0581	1.49893	7807.104
45.1582	1.50352	7823.5
45.2583	1.50725	7795.93
45.3584	1.51029	7815.25
45.4585	1.51414	7836.46
45.5586	1.51685	7849.41
45.6587	1.5205	7864.36
45.7588	1.52278	7884.94
45.8589	1.5266	7901.37
45.959	1.5307	7919.14
46.0591	1.53336	7937.32
46.15918	1.53628	7953.14
46.2593	1.53939	7973.83
46.3594	1.542449	7990.85
46.4595	1.54608	8009.87
46.55957	1.54912	8027.65
46.6597	1.55186	8047.5
46.7598	1.55661	8059.94
46.8599	1.558876	8076.561
46.96	1.56221	8096.08
47.0601	1.56626	8117.04
47.1602	1.57062	8135.72
47.2603	1.57388	8160.39
47.3604	1.57771	8181.85
47.4604	1.58261	8122.25
47.5605	1.58548	8114.81
47.6606	1.58914	8105.26
47.7607	1.59354	8080.39
47.86084	1.59706	8073.68
47.9609	1.599887	8083.86
48.061	1.60452	7945.97
48.1611	1.61008	7875.72
48.26123	1.61326	7890.92
48.3613	1.61684	7905.627
48.4614	1.61961	7923.43
48.5615	1.62153	7938.1
48.6616	1.62549	7921.52
48.7617	1.62919	7940.61
48.8618	1.63062	7958.46
48.9619	1.63348	7973.667
49.062	1.63677	7989.98
49.1621	1.64185	7918.3
49.2622	1.64599	7786.09
49.3623	1.65077	7779.09
49.4624	1.6545	7731.4
49.5625	1.65773	7747.79
49.6626	1.660639	7761.26
49.7627	1.66401	7777.67
49.8628	1.66666	7794.16
49.9629	1.6693	7810.291
50.063	1.6727	7804.29
50.1631	1.67523	7820.12
50.2632	1.67943	7826.335
50.3633	1.68144	7843.124
50.4634	1.684773	7861.686
50.5635	1.6869	7878.38
50.6636	1.69078	7895.57
50.7637	1.69317	7913.07
50.86377	1.69714	7931.5
50.9639	1.69942	7950.8
51.064	1.70198	7968.51
51.1641	1.70565	7986.792
51.26416	1.70718	8003.75
51.3643	1.71255	8023.67
51.4644	1.71566	8039.31
51.5645	1.718688	8057.61
51.6646	1.72078	8073.15
51.7646	1.7243	8090.375
51.8647	1.72737	8105.66
51.9648	1.73084	8085.81
52.0649	1.73374	8101.75
52.165	1.73804	8120.51
52.2651	1.74108	8140.52
52.3652	1.7442	8159.58
52.4653	1.74583	8179.05
52.56543	1.75052	8195.72
52.6655	1.75379	8214.26
52.7656	1.75731	8229.93
52.8657	1.760155	8248.376
52.96582	1.76318	8266.36
53.0659	1.76739	8287.84
53.166	1.77013	8306.127
53.2661	1.77234	8324.4
53.3662	1.77708	8341.62
53.4663	1.779899	8361.37
53.5664	1.78271	8378.14
53.6665	1.7861	8393.74
53.7666	1.788044	8410.79
53.8667	1.79319	8429.73
53.9668	1.79548	8447.03
54.0669	1.79879	8464.58
54.167	1.80222	8482.32
54.26709	1.80577	8499.05
54.3672	1.807797	8515.85
54.4673	1.81338	8461.36
54.5674	1.81592	8481.19
54.66748	1.819858	8498.99
54.7676	1.82288	8515.87
54.8677	1.82548	8533
54.9678	1.82843	8550.58
55.0679	1.83286	8567.51
55.168	1.835224	8584.78
55.2681	1.84028	8603.043
55.3682	1.843068	8620.29
55.4683	1.84506	8636.77
55.5684	1.84825	8655.78
55.6685	1.85246	8674.41
55.7686	1.85491	8692.68
55.8687	1.85861	8708.66
55.96875	1.86155	8729.06
56.0688	1.86544	8747.66
56.1689	1.86947	8758.41
56.269	1.87155	8775.15
56.3691	1.875177	8792.71
56.4692	1.87982	8811.29
56.5693	1.88161	8829.39
56.6694	1.88428	8845.28
56.7695	1.88828	8864.85
56.8696	1.89163	8882.92
56.9697	1.89519	8900.21
57.0698	1.89992	8917.2
57.1699	1.90078	8936.86
57.27002	1.90534	8953.31
57.3701	1.90935	8972.95
57.4702	1.91262	8990.1
57.5703	1.91595	9007.14
57.67041	1.91898	9025.66
57.7705	1.92244	9043.08
57.8706	1.92582	9059.69
57.9707	1.92859	9075.14
58.0708	1.93246	9091.72
58.1709	1.93649	9109.02
58.271	1.93949	9126.01
58.3711	1.94179	9140.05
58.4712	1.94539	9156.29
58.5713	1.94886	9168.64
58.6714	1.95067	9182.56
58.7715	1.95567	9199
58.8716	1.9597	9217.68
58.97168	1.96261	9234.751
59.0718	1.96618	9247.03
59.1719	1.9693	9266.47
59.272	1.97277	9282.24
59.37207	1.97646	9299.6
59.4722	1.98058	9204.97
59.5723	1.98393	9217.82
59.6724	1.98735	9236.3
59.7725	1.990965	9254.541
59.8726	1.99465	9270.37
59.9727	1.99763	9227.16
60.0728	2.00102	9241.11
60.1729	2.0042	9259.18
60.2729	2.00697	9273.28
60.373	2.01027	9290.63
60.4731	2.013412	9306.292
60.5732	2.01728	9323.543
60.67334	2.02009	9339.55
60.7734	2.02284	9355.05
60.8735	2.02692	9231.18
60.9736	2.03127	9245
61.07373	2.03388	9260.77
61.1738	2.03753	9237.583
61.2739	2.0423	9219.41
61.374	2.04491	9236.18
61.4741	2.04822	9252.23
61.5742	2.05148	9265.18
61.6743	2.0542	9282.9
61.7744	2.05702	9296.43
61.8745	2.0608	9313.1
61.9746	2.06361	9328.8
62.0747	2.06824	9152.97
62.1748	2.08684	7467.69
62.2749	2.09315	7485.76
62.375	2.09466	7488.522
62.4751	2.096808	7491.54
62.5752	2.09857	7499.1
62.6753	2.10035	7508.09
62.7754	2.10293	7518.396
62.8755	2.10623	7530.86
62.9756	2.10899	7542.145
63.0757	2.11185	7554.85
63.1758	2.11532	7568.84
63.2759	2.1174	7581.58
63.376	2.12127	7593.09
63.4761	2.12549	7597.02
63.5762	2.12781	7607.92
63.67627	2.1309	7621.82
63.7764	2.13376	7634.98
63.8765	2.13687	7647.75
63.9766	2.13969	7661.5
64.07666	2.14328	7674.52
64.1768	2.14668	7686.11
64.2769	2.14848	7696.54
64.377	2.15163	7706.77
64.4771	2.15393	7715.55
64.5771	2.15708	7728.39
64.6772	2.16037	7739.04
64.7773	2.16635	7657.38
64.8774	2.17571	7027.31