File: dublin_poster_plots/Tensile Tests - Quenched Samples 20180604/BLPX-M1-Q045-04_20180604/specimen.dat
MTS793|MPT|ENU|1|2|.|/|:|1|0|0|A

Data Acquisition						Time:	57.90332	s	6/4/2018 4:22:17 PM
Time	MTS 4 Displacement 4	MTS 4 Force 4
s	mm	N
0.114746	-0.00118613	-14.4084
0.214844	0.00237226	-12.1763
0.314941	0.00459552	-8.81087
0.415039	0.00833869	-5.4541
0.515137	0.0119179	-2.43271
0.615234	0.01475513	4.14485
0.715332	0.0177383	9.94969
0.81543	0.0214487	17.1462
0.915527	0.025171	23.4237
1.015625	0.0279218	29.6656
1.11572	0.031212	38.7677
1.21582	0.0344127	48.1972
1.315918	0.0376552	56.3499
1.41602	0.0415206	67.6475
1.51611	0.0448942	77.8178
1.61621	0.048396	89.409
1.71631	0.0503391	99.9474
1.81641	0.0536025	113.197
1.9165	0.0572622	126.691
2.0166	0.0611126	141.528
2.1167	0.06351769	155.912
2.2168	0.0670403	168.293
2.31689	0.0703305	183.175
2.41699	0.0743985	199.58
2.51709	0.0783592	214.2364
2.61719	0.0803083	228.542
2.71729	0.0831604	242.553
2.81738	0.0859916	256.152
2.91748	0.0894606	275.015
3.01758	0.0935733	292.4339
3.11768	0.0974387	309.387
3.21777	0.100198	322.931
3.31787	0.1032114	339.86
3.41797	0.1061976	357.07
3.51807	0.109598	376.139
3.61816	0.112998	393.218
3.71826	0.115317	411.356
3.81836	0.119656	428.408
3.918457	0.122714	448.321
4.01855	0.126743	467.3
4.11865	0.129449	481.985
4.21875	0.132412	499.625
4.31885	0.136542	518.504
4.41895	0.139704	537.362
4.519043	0.143388	553.507
4.61914	0.146157	572.724
4.71924	0.149357	590.862
4.81934	0.15229	608.57
4.91943	0.156364	626.3186
5.01953	0.1591444	646.262
5.11963	0.163338	666.141
5.21973	0.16664	684.867
5.31982	0.169936	701.958
5.41992	0.174028	722.0675
5.52002	0.176305	739.182
5.62012	0.179943	759.731
5.72021	0.1832962	777.569
5.82031	0.189808	809.8728
5.92041	0.193432	831.437
6.02051	0.196537	850.404
6.12061	0.19998	862.408
6.2207	0.202373	878.778
6.3208	0.204808	893.603
6.4209	0.207555	912.043
6.521	0.210884	928.853
6.62109	0.214401	947.218
6.72119	0.217691	962.437
6.82129	0.220364	979.537
6.92139	0.223464	997.62
7.02148	0.227568	1016.32
7.121582	0.229907	1034.4
7.22168	0.233889	1053.51
7.32178	0.236326	1072.05
7.421875	0.240335	1089.37
7.52197	0.242609	1107.35
7.62207	0.246555	1126.27
7.722168	0.249827	1144.63
7.82227	0.25245	1162.24
7.92236	0.256491	1180.17
8.02246	0.260934	1194.23
8.12256	0.263476	1213.69
8.22266	0.265437	1229.87
8.32275	0.269309	1248.94
8.42285	0.272796	1269.45
8.52295	0.276434	1289.94
8.62305	0.28064	1307.33
8.72314	0.283673	1325.57
8.82324	0.287271	1343.5
8.92334	0.288948	1360.98
9.02344	0.293362	1379.12
9.12354	0.296628	1395.07
9.22363	0.301218	1415.65
9.32373	0.304797	1433.99
9.42383	0.306648	1449.95
9.52393	0.309429	1467.55
9.62402	0.313333	1487.64
9.72412	0.3174752	1504.137
9.82422	0.320548	1520.65
9.92432	0.322738	1539.82
10.0244	0.326228	1557.031
10.1245	0.330502	1576.885
10.2246	0.333634	1596.83
10.3247	0.338143	1615.47
10.4248	0.340179	1636.28
10.5249	0.3444761	1653.11
10.625	0.347078	1672.53
10.7251	0.349951	1689.2
10.8252	0.353727	1706.04
10.9253	0.357175	1725.76
11.0254	0.361484	1741.05
11.1255	0.363785	1756.85
11.2256	0.367135	1776.47
11.3257	0.370792	1795.71
11.4258	0.37494	1812.31
11.5259	0.3777	1829.85
11.626	0.380456	1845.54
11.7261	0.383395	1861.18
11.8262	0.387654	1880.77
11.92627	0.390312	1899.5
12.0264	0.394362	1917.49
12.1265	0.397894	1934.56
12.2266	0.400117	1950.26
12.32666	0.404271	1968.63
12.4268	0.407523	1990.996
12.5269	0.411853	2010.74
12.627	0.414878	2029.08
12.7271	0.41756	2047.34
12.8271	0.420514	2063.873
12.9272	0.424191	2078.63
13.0273	0.427142	2098.2
13.1274	0.432369	2113.47
13.2275	0.433522	2131.77
13.3276	0.437775	2147.82
13.4277	0.4401952	2167.01
13.5278	0.444654	2183.81
13.62793	0.44789	2201.85
13.728	0.450128	2221.23
13.8281	0.454471	2239.79
13.9282	0.457335	2260
14.02832	0.459486	2274.636
14.1284	0.4640311	2295.35
14.2285	0.4673779	2313.86
14.3286	0.470477	2334.4
14.4287	0.474921	2354.55
14.5288	0.477937	2372.01
14.6289	0.4807055	2388.311
14.729	0.484347	2407.39
14.8291	0.488046	2426.01
14.9292	0.4927367	2445.54
15.0293	0.495729	2461.18
15.1294	0.499442	2477.61
15.2295	0.5019635	2492.37
15.32959	0.505644	2509.15
15.4297	0.508508	2526.92
15.5298	0.512069	2546.69
15.6299	0.51544	2563
15.72998	0.518203	2582
15.8301	0.5207479	2602.01
15.9302	0.5258292	2622.16
16.0303	0.529927	2644.49
16.1304	0.533935	2661.91
16.2305	0.536731	2680.65
16.3306	0.539002	2700.62
16.4307	0.544009	2718.82
16.5308	0.546771	2733.5
16.6309	0.54931	2753.96
16.731	0.553167	2775.06
16.8311	0.557205	2800.98
16.9312	0.563276	2827.39
17.03125	0.567147	2846.91
17.1313	0.570032	2870.98
17.2314	0.575736	2899.74
17.3315	0.583658	2945.49
17.4316	0.587812	2965.93
17.5317	0.590953	2982.21
17.6318	0.593805	2996.64
17.7319	0.597227	3014.415
17.832	0.600132	3029.03
17.9321	0.603798	3045.5
18.0322	0.606689	3060.94
18.1323	0.6089747	3076.03
18.2324	0.612304	3091.178
18.33252	0.614947	3109.17
18.4326	0.618505	3124.24
18.5327	0.6210953	3140.47
18.6328	0.6246537	3155.46
18.73291	0.627699	3171.02
18.833	0.630283	3188.25
18.9331	0.633162	3205.91
19.0332	0.635767	3222.71
19.1333	0.6390214	3240.42
19.2334	0.643489	3257.29
19.3335	0.64539	3276.45
19.4336	0.6482631	3293.46
19.5337	0.6511271	3309.69
19.6338	0.6549418	3329.84
19.7339	0.658071	3345.13
19.834	0.661346	3362
19.9341	0.664535	3379.34
20.03418	0.668034	3397.23
20.1343	0.671035	3415.46
20.2344	0.673878	3432.31
20.3345	0.678015	3451.15
20.43457	0.680733	3464.06
20.5347	0.682858	3483.04
20.6348	0.686941	3502.18
20.7349	0.68917	3519.01
20.835	0.692743	3538.29
20.9351	0.696155	3556.51
21.0352	0.700283	3575.8
21.1353	0.703189	3594.34
21.2354	0.706112	3610.94
21.3354	0.709152	3627.24
21.4355	0.713414	3645.72
21.5356	0.715756	3662.62
21.6357	0.719163	3679.8
21.73584	0.722313	3698.82
21.8359	0.725737	3717.22
21.936	0.72816	3731.86
22.0361	0.7319808	3751.28
22.13623	0.735089	3769.26
22.2363	0.737149	3786.41
22.3364	0.740561	3803.57
22.4365	0.744966	3823.8
22.5366	0.748461	3841.77
22.6367	0.7511884	3859.01
22.7368	0.754547	3878.01
22.8369	0.756913	3897.75
22.937	0.760677	3914.69
23.0371	0.763991	3933.532
23.1372	0.768015	3950.42
23.2373	0.771889	3971.48
23.3374	0.774673	3989.06
23.4375	0.7771939	4005.44
23.5376	0.781545	4024.65
23.6377	0.784755	4042.08
23.7378	0.788024	4061.52
23.8379	0.7909	4080.03
23.938	0.794083	4097.8
24.0381	0.797516	4117.95
24.1382	0.800866	4136.123
24.2383	0.804093	4154.14
24.3384	0.80725	4173.05
24.4385	0.810197	4191.21
24.5386	0.814289	4203.66
24.6387	0.817716	4223.14
24.73877	0.820315	4242.1
24.8389	0.823572	4259.38
24.939	0.826919	4277.293
25.0391	0.829536	4297.22
25.13916	0.833437	4315.21
25.2393	0.836921	4327.7
25.3394	0.840655	4346.853
25.4395	0.8440733	4366.35
25.5396	0.8476615	4382.73
25.6396	0.850034	4402.03
25.7397	0.853553	4419.82
25.8398	0.857073	4439.61
25.9399	0.860453	4459.1
26.04	0.86323	4476.97
26.1401	0.866428	4496.95
26.2402	0.869817	4516.51
26.3403	0.873843	4534.25
26.44043	0.876066	4553.97
26.5405	0.879791	4571.79
26.6406	0.884026	4590.89
26.7407	0.888446	4609.61
26.84082	0.890231	4628.22
26.9409	0.894302	4644.98
27.041	0.896707	4664.54
27.1411	0.900376	4684.21
27.2412	0.90366	4702.41
27.3413	0.906438	4722.833
27.4414	0.91036	4742.918
27.5415	0.913674	4761.34
27.6416	0.91728	4776.34
27.7417	0.920174	4797.72
27.8418	0.923526	4819.05
27.9419	0.928262	4838.52
28.042	0.93112	4857.31
28.14209	0.933197	4875.59
28.2422	0.937748	4895.36
28.3423	0.940764	4913.8
28.4424	0.94434	4933.31
28.54248	0.947624	4951.37
28.6426	0.951454	4969.44
28.7427	0.953576	4988.81
28.8428	0.956976	5008.37
28.9429	0.961369	5025.95
29.043	0.964776	5044.793
29.1431	0.967258	5062.17
29.2432	0.97093	5076.92
29.3433	0.9752661	5094.58
29.4434	0.977832	5114.94
29.5435	0.980863	5130.917
29.6436	0.983009	5149.74
29.7437	0.988016	5172.86
29.84375	0.991976	5195.27
29.9438	0.9952575	5215.03
30.0439	0.9991616	5234.72
30.144	1.00186	5253.13
30.2441	1.00475	5269.918
30.3442	1.00857	5289.07
30.4443	1.01058	5307.76
30.5444	1.01499	5327.32
30.6445	1.01731	5344.25
30.7446	1.02138	5363.418
30.8447	1.02429	5381.16
30.9448	1.02792	5388.12
31.0449	1.03107	5406.19
31.14502	1.03459	5423.48
31.2451	1.0375	5439.62
31.3452	1.04039	5458.56
31.4453	1.0447	5475.77
31.54541	1.04733	5495.05
31.6455	1.05034	5510.29
31.7456	1.05372	5530.375
31.8457	1.05827	5548.09
31.9458	1.06009	5568.76
32.0459	1.06431	5588.01
32.146	1.06806	5603.19
32.2461	1.07182	5623.32
32.3462	1.07456	5641.72
32.4463	1.077047	5659.09
32.5464	1.08085	5675.43
32.6465	1.08446	5696.1
32.7466	1.08826	5716.42
32.84668	1.09129	5735.49
32.9468	1.09456	5754.47
33.0469	1.097849	5772.2
33.147	1.1007	5791.61
33.24707	1.103887	5810.04
33.3472	1.10808	5831.72
33.4473	1.11347	5848.52
33.5474	1.11411	5865.55
33.6475	1.11782	5886.99
33.7476	1.12085	5903.6
33.8477	1.12434	5922.05
33.9478	1.12778	5941.25
34.0479	1.1307	5958.46
34.1479	1.13384	5978.15
34.248	1.13774	5993.44
34.3481	1.14103	6014.07
34.4482	1.1447	6027.13
34.54834	1.14716	6045.46
34.6484	1.15065	6064.9
34.7485	1.15511	6085.48
34.8486	1.1582	6104.33
34.94873	1.161322	6101.32
35.0488	1.16544	6116.93
35.1489	1.168254	6136.86
35.249	1.17072	6154.43
35.3491	1.17501	6173.41
35.4492	1.17779	6190.45
35.5493	1.18061	6211.03
35.6494	1.18403	6229.81
35.7495	1.18834	6249.8
35.8496	1.19287	6270.15
35.9497	1.19444	6288.14
36.0498	1.19792	6308.94
36.1499	1.2008	6328.38
36.25	1.20481	6343.05
36.3501	1.20869	6361.51
36.4502	1.2113	6377.42
36.5503	1.21552	6395.83
36.6504	1.21798	6414.31
36.7505	1.22132	6431.75
36.8506	1.22553	6450.228
36.9507	1.22796	6469.751
37.0508	1.23133	6489.62
37.1509	1.23451	6508.96
37.251	1.23873	6528.4
37.3511	1.24181	6543.55
37.4512	1.24446	6562.59
37.55127	1.2481	6580.623
37.6514	1.25258	6601.16
37.7515	1.25503	6619.23
37.8516	1.25803	6639.73
37.95166	1.26241	6656.647
38.0518	1.26438	6673.4
38.1519	1.2685	6693.07
38.252	1.27094	6711.3
38.3521	1.27447	6728.96
38.4521	1.27866	6741.65
38.5522	1.28154	6760.79
38.6523	1.28482	6779.22
38.7524	1.28873	6798.54
38.8525	1.29177	6808.65
38.9526	1.29637	6825.16
39.0527	1.29812	6842.31
39.1528	1.30079	6863.86
39.25293	1.30481	6884.66
39.353	1.30793	6905.71
39.4531	1.31167	6924.29
39.5532	1.31514	6942.93
39.65332	1.31899	6964.48
39.7534	1.32242	6983.93
39.8535	1.325953	7001.58
39.9536	1.32865	7021.49
40.0537	1.33266	7037.05
40.1538	1.33523	7054.42
40.2539	1.33803	7075.49
40.354	1.34343	7011.55
40.4541	1.34585	7016.31
40.5542	1.35052	6980.48
40.6543	1.35405	6974.11
40.7544	1.35832	6988.66
40.8545	1.36127	7005.22
40.95459	1.365447	7022.71
41.0547	1.36668	7040.13
41.1548	1.37033	7055.55
41.2549	1.37393	7071.23
41.35498	1.37604	7088.5
41.4551	1.37954	7106.48
41.5552	1.3834	7124.38
41.6553	1.384747	7137.06
41.7554	1.38896	7154.65
41.8555	1.39213	7170.68
41.9556	1.39472	7191.29
42.0557	1.398766	7208.521
42.1558	1.40211	7226.65
42.2559	1.4052	7245.91
42.356	1.4095	7265.09
42.4561	1.41137	7284.3
42.5562	1.41538	7297.92
42.65625	1.41903	7315.2
42.7563	1.422599	7333.63
42.8564	1.42542	7350.86
42.9565	1.42807	7369.3
43.0566	1.43124	7389.021
43.1567	1.43645	7357.47
43.2568	1.43957	7367.084
43.3569	1.44299	7385.6
43.457	1.44538	7404.81
43.5571	1.44838	7421.55
43.6572	1.4516	7441.8
43.7573	1.455304	7431.41
43.8574	1.45888	7451.56
43.95752	1.46333	7467.74
44.0576	1.46599	7484.59
44.1577	1.46957	7501.39
44.2578	1.47232	7519.67
44.35791	1.475957	7536.76
44.458	1.47862	7554.41
44.5581	1.48294	7572.58
44.6582	1.48557	7592.03
44.7583	1.48801	7609.73
44.8584	1.49216	7628.05
44.9585	1.49477	7647.93
45.0586	1.49885	7664.41
45.1587	1.50232	7683.6
45.2588	1.50575	7702.21
45.3589	1.50957	7722.42
45.459	1.51253	7738.94
45.5591	1.51639	7755.333
45.65918	1.51869	7775.07
45.7593	1.5219	7793.92
45.8594	1.52563	7813.04
45.9595	1.5287	7831.71
46.05957	1.53157	7847.72
46.1597	1.53501	7866.27
46.2598	1.538834	7883.99
46.3599	1.54218	7897.459
46.46	1.54537	7917.35
46.5601	1.54895	7933.23
46.6602	1.55211	7952.36
46.7603	1.55561	7972.29
46.8604	1.55935	7989.49
46.9604	1.56262	8007.6
47.0605	1.56603	8023.96
47.1606	1.568085	8043.37
47.2607	1.57235	8060.21
47.36084	1.57578	8074.2
47.4609	1.57934	8078.79
47.561	1.58366	8066.59
47.6611	1.586929	8044.57
47.76123	1.59186	7952.76
47.8613	1.59604	7891.44
47.9614	1.60037	7908.54
48.0615	1.60269	7923.439
48.1616	1.605916	7938.98
48.2617	1.60901	7955.63
48.3618	1.61172	7962.84
48.4619	1.61505	7976.49
48.562	1.61932	7916.63
48.6621	1.62204	7927.98
48.7622	1.625666	7932.8
48.8623	1.62918	7927.48
48.9624	1.63546	7950.94
49.0625	1.63638	7950.82
49.1626	1.64064	7966.66
49.2627	1.644206	7930.98
49.3628	1.64755	7942.97
49.4629	1.64957	7959.5
49.563	1.65427	7884.11
49.6631	1.6598	7638.17
49.7632	1.66368	7643.04
49.8633	1.665616	7661.53
49.9634	1.66898	7676.15
50.0635	1.67283	7688.93
50.1636	1.67478	7706.96
50.2637	1.67816	7712.36
50.36377	1.68114	7731.36
50.4639	1.68428	7749.09
50.564	1.68686	7766.28
50.6641	1.68979	7783.18
50.76416	1.69344	7801.69
50.8643	1.69639	7819.021
50.9644	1.69927	7832.1
51.0645	1.70204	7848.67
51.1646	1.70445	7865.74
51.2646	1.70848	7884.585
51.3647	1.71321	7908.68
51.4648	1.71676	7923.98
51.5649	1.719898	7944.16
51.665	1.72298	7962.501
51.7651	1.72709	7979.44
51.8652	1.73041	7995.28
51.9653	1.73282	8013.39
52.06543	1.73652	8029.07
52.1655	1.73987	8040.42
52.2656	1.74186	8057.19
52.3657	1.74515	8073.57
52.46582	1.74987	7962.31
52.5659	1.75288	7981.94
52.666	1.75598	7999.31
52.7661	1.75962	8016.43
52.8662	1.76267	8032.689
52.9663	1.76529	8048.68
53.0664	1.76877	8062.998
53.1665	1.77264	8079.06
53.2666	1.77483	8093.68
53.3667	1.77846	8104.041
53.4668	1.78172	8116.43
53.5669	1.78425	8131.1
53.667	1.78741	8149.22
53.76709	1.79116	8165.86
53.8672	1.79423	8183.06
53.9673	1.797089	8176.42
54.0674	1.801163	8194.13
54.16748	1.803422	8209.73
54.2676	1.80685	8227.998
54.3677	1.809749	8241.31
54.4678	1.81295	8257.42
54.5679	1.81521	8274.4
54.668	1.81887	8288.59
54.7681	1.82149	8298.51
54.8682	1.82383	8316.24
54.9683	1.82937	8332.99
55.0684	1.83497	8037.49
55.1685	1.83864	8059.83
55.2686	1.84313	8042.07
55.3687	1.84644	8055.85
55.46875	1.85143	7918.97
55.5688	1.8549	7922.81
55.6689	1.85753	7939.563
55.769	1.86156	7954.29
55.8691	1.86471	7904.52
55.9692	1.86782	7891.79
56.0693	1.87199	7907.18
56.1694	1.87447	7918.16
56.2695	1.87702	7927.62
56.3696	1.87984	7941.73
56.4697	1.884228	7956.53
56.5698	1.88942	7299.77
56.6699	1.90342	5654.45
56.77002	1.90381	5548.75
56.8701	1.90416	5547.54
56.9702	1.90678	5557.75
57.0703	1.90992	5567.543
57.17041	1.912874	5577.98
57.2705	1.91591	5586.52
57.3706	1.91953	5597.89
57.4707	1.9223	5609.28
57.5708	1.92507	5618.49
57.6709	1.93002	5563.93
57.771	1.93177	5569.76
57.8711	1.93641	5566.53