File: dublin_poster_plots/Tensile Tests - Quenched Samples 20180604/BLPX-M1-Q045-03_20180604/specimen.dat
MTS793|MPT|ENU|1|2|.|/|:|1|0|0|A

Data Acquisition						Time:	62.5288	s	6/4/2018 4:17:50 PM
Time	MTS 4 Displacement 4	MTS 4 Force 4
s	mm	N
0.115234	0.00102818	-12.5763
0.215332	0.00511408	-11.3057
0.31543	0.00807047	-8.75881
0.415527	0.0112325	-6.81132
0.515625	0.0149071	-4.0208
0.615723	0.0183344	-2.96412
0.71582	0.0212222	-3.2289
0.815918	0.0246286	0.260025
0.916016	0.0287145	2.92743
1.01611	0.0311136	3.76096
1.11621	0.0345647	8.06246
1.21631	0.0377893	9.69078
1.31641	0.0416934	11.979
1.4165	0.0446469	14.2719
1.5166	0.0487208	16.5929
1.6167	0.0506699	19.2464
1.7168	0.0541896	23.3152
1.81689	0.0573993	24.2705
1.91699	0.0611335	26.7332
2.01709	0.0657558	31.0184
2.11719	0.06839335	33.4855
2.21729	0.07148385	36.3776
2.31738	0.0737131	40.3583
2.41748	0.0774622	44.5908
2.51758	0.0811368	47.89587
2.61768	0.0851661	51.2021
2.71777	0.0871688	55.786
2.81787	0.0910789	60.4556
2.91797	0.09483099	64.6911
3.01807	0.0966579	69.7869
3.11816	0.100783	76.8943
3.21826	0.105065	83.244
3.31836	0.108677	88.89502
3.418457	0.11183	95.3579
3.51855	0.114492	101.72
3.61865	0.117698	109.986
3.71875	0.121763	118.241
3.81885	0.124648	124.257
3.91895	0.128287	132.151
4.019043	0.13113	142.813
4.11914	0.133693	150.268
4.21924	0.137195	160.0854
4.31934	0.141114	171.481
4.41943	0.144401	182.485
4.51953	0.147301	189.854
4.61963	0.150523	200.602
4.71973	0.154513	212.672
4.81982	0.157186	222.363
4.91992	0.160241	235.911
5.02002	0.1629889	245.435
5.12012	0.165799	258.58
5.22021	0.1698494	271.685
5.32031	0.1726985	284.771
5.42041	0.1774013	300.5527
5.52051	0.180107	313.922
5.62061	0.182706	325.019
5.7207	0.186956	339.619
5.8208	0.190759	357.774
5.9209	0.192666	372.736
6.021	0.197375	388.357
6.12109	0.201055	401.929
6.22119	0.203601	414.977
6.32129	0.207141	429.163
6.42139	0.210398	444.58
6.52148	0.213295	459.093
6.621582	0.216305	476.2262
6.72168	0.2197504	491.883
6.82178	0.223577	508.615
6.921875	0.226563	523.375
7.02197	0.229412	539.766
7.12207	0.232992	554.362
7.222168	0.236368	568.483
7.32227	0.240302	583.724
7.42236	0.24339	602.146
7.52246	0.245851	617.496
7.62256	0.249746	633.8562
7.72266	0.253046	647.9754
7.82275	0.256938	665.0119
7.92285	0.259593	682.545
8.02295	0.262737	698.341
8.12305	0.266129	717.603
8.22314	0.269452	731.543
8.32324	0.272763	748.562
8.42334	0.27625	763.619
8.52344	0.280264	783.964
8.62354	0.2833426	801.558
8.72363	0.286359	818.081
8.82373	0.290161	833.325
8.92383	0.2930671	850.373
9.02393	0.296563	865.768
9.12402	0.299075	881.648
9.22412	0.303239	899.103
9.32422	0.307456	914.631
9.42432	0.30995	929.91
9.52441	0.313449	947.556
9.62451	0.31653	965.0755
9.72461	0.320977	981.598
9.824707	0.321916	996.326
9.9248	0.326055	1014.32
10.0249	0.329721	1033.89
10.125	0.333017	1048.74
10.2251	0.336432	1062.7
10.3252	0.338912	1079.26
10.4253	0.343239	1097.76
10.5254	0.346276	1112.6
10.6255	0.3497988	1128.01
10.7256	0.354266	1146.81
10.8257	0.356638	1163.58
10.9258	0.359964	1179.8
11.0259	0.363737	1196.87
11.126	0.365534	1214.3
11.2261	0.3696233	1229.098
11.3262	0.373405	1244.36
11.42627	0.3768146	1261.3
11.5264	0.37936	1279.43
11.6265	0.38248	1293.87
11.7266	0.386161	1309.18
11.82666	0.389254	1324.074
11.9268	0.39326	1341.21
12.0269	0.397035	1358.03
12.127	0.399527	1374.52
12.2271	0.403342	1392.5
12.3271	0.4065007	1407.52
12.4272	0.4100889	1421.715
12.5273	0.413907	1437.88
12.6274	0.416312	1454.83
12.7275	0.419852	1471.08
12.8276	0.422615	1488.31
12.9277	0.426489	1506.66
13.0278	0.430632	1521.58
13.12793	0.433365	1536.87
13.228	0.4361093	1552.04
13.3281	0.440037	1569.86
13.4282	0.443056	1586.08
13.52832	0.446153	1601.59
13.6284	0.449538	1616.86
13.7285	0.4532218	1632.2
13.8286	0.457439	1647.18
13.9287	0.45979	1665.6
14.0288	0.463897	1679.77
14.1289	0.465474	1694.56
14.229	0.470075	1711.63
14.3291	0.473607	1728.19
14.4292	0.475752	1745.3
14.5293	0.48025	1761.89
14.6294	0.483647	1775.78
14.7295	0.48697	1792.68
14.82959	0.489986	1804.98
14.9297	0.494465	1821.27
15.0298	0.496805	1835.69
15.1299	0.499639	1850.13
15.22998	0.502923	1866.19
15.3301	0.50756	1882.43
15.4302	0.509802	1896.757
15.5303	0.513706	1914.16
15.6304	0.5182445	1930.51
15.7305	0.519514	1946.563
15.8306	0.523767	1962.82
15.9307	0.526932	1977.92
16.0308	0.529683	1991.24
16.1309	0.53356	2008.91
16.231	0.537094	2026.545
16.3311	0.539771	2042.94
16.4312	0.543356	2059.386
16.53125	0.546405	2076.5
16.6313	0.550112	2091.48
16.7314	0.552645	2105.87
16.8315	0.5584985	2122.55
16.9316	0.56074	2136.9
17.0317	0.564599	2149.75
17.1318	0.5669266	2168.8
17.2319	0.570527	2184.855
17.332	0.574091	2202.46
17.4321	0.577307	2216.94
17.5322	0.580478	2233.76
17.6323	0.584757	2247.72
17.7324	0.587964	2263.2
17.83252	0.590366	2282.96
17.9326	0.594375	2300.49
18.0327	0.598267	2316.65
18.1328	0.601754	2330.45
18.23291	0.6049633	2344.67
18.333	0.60859	2358.11
18.4331	0.611731	2376.69
18.5332	0.614369	2392.29
18.6333	0.617731	2408.31
18.7334	0.621203	2427.4
18.8335	0.625056	2444.36
18.9336	0.628191	2465
19.0337	0.632972	2485.69
19.1338	0.637203	2504.11
19.2339	0.640914	2515.56
19.334	0.64418	2533.41
19.4341	0.648957	2549.65
19.53418	0.651509	2570.15
19.6343	0.656614	2600.144
19.7344	0.661618	2619.11
19.8345	0.664234	2634.89
19.93457	0.666919	2651.49
20.0347	0.670648	2666.27
20.1348	0.674942	2683.01
20.2349	0.677818	2698.67
20.335	0.679711	2711.1
20.4351	0.683472	2731.45
20.5352	0.686833	2746.42
20.6353	0.689441	2762.35
20.7354	0.694224	2777.78
20.8354	0.696632	2792.84
20.9355	0.699052	2798.78
21.0356	0.701219	2813.51
21.1357	0.70428	2832.72
21.23584	0.7081002	2848.658
21.3359	0.711757	2865.59
21.436	0.713718	2883.03
21.5361	0.717291	2900.13
21.63623	0.721982	2900.57
21.7363	0.724843	2913.66
21.8364	0.7273674	2928.86
21.9365	0.730878	2946.17
22.0366	0.734299	2964.58
22.1367	0.736371	2980.59
22.2368	0.7406	2992.81
22.3369	0.743762	3010.77
22.437	0.7476002	3028.56
22.5371	0.7510066	3043.86
22.6372	0.753927	3059.46
22.7373	0.757235	3073.48
22.8374	0.760493	3089.07
22.9375	0.763485	3105.58
23.0376	0.765997	3122.45
23.1377	0.769946	3134.51
23.2378	0.773826	3149.55
23.3379	0.776327	3165.08
23.438	0.779691	3183.75
23.5381	0.783738	3196.99
23.6382	0.786462	3215.32
23.7383	0.790739	3229.18
23.8384	0.7927537	3232.53
23.9385	0.795883	3249.97
24.0386	0.79951	3266.17
24.1387	0.802511	3282.96
24.23877	0.806132	3300.86
24.3389	0.809464	3318.21
24.439	0.812867	3333.231
24.5391	0.81611	3350.97
24.63916	0.818622	3366.49
24.7393	0.822729	3380.61
24.8394	0.825259	3396.2
24.9395	0.829461	3412.77
25.0396	0.832611	3431.48
25.1396	0.835785	3449.22
25.2397	0.839436	3465.48
25.3398	0.843057	3482.86
25.4399	0.84663	3498.9
25.54	0.849435	3514.77
25.6401	0.852996	3532.44
25.7402	0.855854	3548.95
25.8403	0.859535	3567.44
25.94043	0.862357	3583.65
26.0405	0.864753	3582.165
26.1406	0.868881	3601.09
26.2407	0.872466	3619.28
26.34082	0.874695	3634.29
26.4409	0.8800298	3653.61
26.541	0.8818984	3670.439
26.6411	0.886208	3689.27
26.7412	0.889799	3706.01
26.8413	0.892279	3723.03
26.9414	0.895455	3741.03
27.0415	0.898123	3756.49
27.1416	0.902483	3775.93
27.2417	0.905588	3793.78
27.3418	0.908089	3811.28
27.4419	0.91202	3827.127
27.542	0.915858	3846.16
27.64209	0.919089	3862.51
27.7422	0.922012	3880.83
27.8423	0.926262	3899.87
27.9424	0.929341	3918.1
28.04248	0.933081	3935.83
28.1426	0.9360522	3948.93
28.2427	0.939736	3967.92
28.3428	0.942853	3987.98
28.4429	0.947365	4003.28
28.543	0.950736	4018.45
28.6431	0.952598	4033.25
28.7432	0.956643	4050.11
28.8433	0.959179	4067.84
28.9434	0.961614	4083.71
29.0435	0.965431	4099.48
29.1436	0.969282	4115.69
29.2437	0.97279	4133.39
29.34375	0.975692	4150.98
29.4438	0.979257	4164.91
29.5439	0.982913	4173.95
29.644	0.9860158	4189.51
29.7441	0.9906292	4170.314
29.8442	0.994098	4183.33
29.9443	0.996286	4198.46
30.0444	0.999168	4215.26
30.1445	1.00237	4231.82
30.2446	1.006031	4247.22
30.3447	1.00888	4264.08
30.4448	1.01309	4278.74
30.5449	1.01529	4295.64
30.64502	1.01958	4313.25
30.7451	1.022768	4331.69
30.8452	1.02592	4344.05
30.9453	1.02931	4360.89
31.04541	1.03223	4375.05
31.1455	1.035	4385.26
31.2456	1.03916	4403.6
31.3457	1.04262	4418.97
31.4458	1.04558	4434.66
31.5459	1.04884	4452.32
31.646	1.05314	4468.32
31.7461	1.05638	4485.91
31.8462	1.05937	4502.11
31.9463	1.062	4521.48
32.0464	1.06684	4533.78
32.1465	1.06912	4553.42
32.2466	1.07255	4570.37
32.34668	1.07673	4586.53
32.4468	1.07944	4603.4
32.5469	1.08231	4619.55
32.647	1.08555	4636.35
32.74707	1.08966	4637.9
32.8472	1.09289	4655.74
32.9473	1.09549	4667.61
33.0474	1.09958	4685.82
33.1475	1.10247	4698.59
33.2476	1.10789	4701.87
33.3477	1.10922	4714.394
33.4478	1.11215	4730.75
33.5479	1.11661	4746.66
33.6479	1.11913	4761.91
33.748	1.123178	4774.91
33.8481	1.12674	4790.707
33.9482	1.12938	4805.334
34.04834	1.13329	4783.46
34.1484	1.1364	4793.9
34.2485	1.14051	4810.458
34.3486	1.14296	4825.93
34.44873	1.14644	4838.17
34.5488	1.151517	4853.86
34.6489	1.15269	4869.43
34.749	1.15777	4849.52
34.8491	1.16006	4862.686
34.9492	1.16327	4879.37
35.0493	1.16752	4797.06
35.1494	1.17072	4806.61
35.2495	1.17465	4821.03
35.3496	1.17684	4836.18
35.4497	1.1809	4847.94
35.5498	1.18277	4863.89
35.6499	1.18688	4881.35
35.75	1.19019	4897.146
35.8501	1.1932	4910.52
35.9502	1.19508	4926.15
36.0503	1.19989	4942.6
36.1504	1.2035	4958.14
36.2505	1.20596	4975.729
36.3506	1.20866	4983.7
36.4507	1.21339	4997.27
36.5508	1.215741	5015
36.6509	1.21964	5030.79
36.751	1.22489	5009.39
36.8511	1.226449	5012.87
36.9512	1.229611	5027.063
37.05127	1.23286	5035.68
37.1514	1.23688	5051.15
37.2515	1.23922	5067.85
37.3516	1.24381	5079.69
37.45166	1.24835	4862.86
37.5518	1.25216	4845.88
37.6519	1.25498	4860.37
37.752	1.25881	4876.06
37.8521	1.26202	4890.85
37.9521	1.26528	4905.59
38.0522	1.26759	4921.03
38.1523	1.27103	4937.876
38.2524	1.275146	4964.21
38.3525	1.2819	4996.78
38.4526	1.28502	5011.93
38.5527	1.28844	5013.832
38.6528	1.29101	5027.09
38.75293	1.29366	5042.61
38.853	1.29739	5058.4
38.9531	1.299873	5074.64
39.0532	1.30339	5090.87
39.15332	1.30664	5106.53
39.2534	1.30875	5116.75
39.3535	1.3106	5125.28
39.4536	1.31358	5144.54
39.5537	1.317367	5162.53
39.6538	1.32165	5181.69
39.7539	1.326555	5207.41
39.854	1.32971	5223.7
39.9541	1.33309	5241.96
40.0542	1.33658	5257.03
40.1543	1.3391	5269.8
40.2544	1.34143	5284.42
40.3545	1.34462	5296.82
40.45459	1.34823	5310.12
40.5547	1.35186	5328.06
40.6548	1.3556	5336.45
40.7549	1.357767	5352.11
40.85498	1.36185	5368.41
40.9551	1.36422	5383.02
41.0552	1.36725	5400.05
41.1553	1.370737	5415.57
41.2554	1.374495	5410.53
41.3555	1.37759	5424.91
41.4556	1.38087	5440.98
41.5557	1.38469	5457.78
41.6558	1.38674	5461.44
41.7559	1.39167	5472.87
41.856	1.3944	5447.54
41.9561	1.39741	5463.15
42.0562	1.400885	5477.49
42.15625	1.40416	5494.05
42.2563	1.40727	5513.35
42.3564	1.41165	5530.94
42.4565	1.41457	5547.97
42.5566	1.418066	5563.02
42.6567	1.4218	5580.11
42.7568	1.42446	5593.98
42.8569	1.427269	5601.98
42.957	1.43105	5617.94
43.0571	1.4339	5634.38
43.1572	1.43708	5650.59
43.2573	1.43997	5666.62
43.3574	1.44317	5681.09
43.45752	1.44803	5697.31
43.5576	1.45171	5711.05
43.6577	1.45406	5723.89
43.7578	1.45808	5736.08
43.85791	1.46075	5752.2
43.958	1.46421	5715.667
44.0581	1.46734	5728.106
44.1582	1.47059	5739.53
44.2583	1.47374	5757.459
44.3584	1.47668	5771.71
44.4585	1.48107	5787.75
44.5586	1.48385	5803.645
44.6587	1.48672	5821.42
44.7588	1.49032	5836.11
44.8589	1.49314	5851.85
44.959	1.49645	5869.13
45.0591	1.50075	5886.11
45.15918	1.502955	5902.45
45.2593	1.50805	5916.981
45.3594	1.50981	5931.82
45.4595	1.51349	5946
45.55957	1.51616	5961.63
45.6597	1.51947	5977.81
45.7598	1.523754	5994.38
45.8599	1.52761	6014.88
45.96	1.53042	6022.998
46.0601	1.53471	6036.188
46.1602	1.53708	6049.72
46.2603	1.54005	6063.6
46.3604	1.54274	6077.51
46.4604	1.54741	6094.3
46.5605	1.55067	6109.27
46.6606	1.55386	6122.04
46.7607	1.55839	5904.145
46.86084	1.56313	5920.44
46.9609	1.5664	5933.95
47.061	1.5685	5947.37
47.1611	1.57172	5953.8
47.26123	1.57552	5971.37
47.3613	1.57831	5985.98
47.4614	1.58174	6002.05
47.5615	1.58528	6017.062
47.6616	1.58697	6032.55
47.7617	1.59187	6046.39
47.8618	1.59349	6062.53
47.9619	1.59723	6075.999
48.062	1.60153	6022.01
48.1621	1.60477	6038.81
48.2622	1.60742	6053
48.3623	1.610148	6049.53
48.4624	1.61537	5972.54
48.5625	1.61999	5793.623
48.6626	1.62429	5802.37
48.7627	1.627022	5815.04
48.8628	1.62967	5828.1
48.9629	1.63312	5829.36
49.063	1.63673	5844.09
49.1631	1.63821	5854.79
49.2632	1.64106	5867.82
49.3633	1.64508	5882.26
49.4634	1.6494	5805.69
49.5635	1.65241	5753.53
49.6636	1.65699	5738.44
49.7637	1.66001	5659.32
49.86377	1.66395	5662.95
49.9639	1.667	5676.12
50.064	1.67021	5689.29
50.1641	1.67318	5697.88
50.26416	1.67843	5653.53
50.3643	1.68119	5666.457
50.4644	1.68267	5679.73
50.5645	1.68609	5693.57
50.6646	1.689449	5707.21
50.7646	1.69263	5720.72
50.8647	1.696977	5657.4
50.9648	1.70063	5672.05
51.0649	1.70396	5592.84
51.165	1.70726	5605.12
51.2651	1.7132	5399.04
51.3652	1.71452	5406.29
51.4653	1.71863	5411.63
51.56543	1.72225	5421.88
51.6655	1.72517	5435.24
51.7656	1.72772	5448.37
51.8657	1.73183	5364.97
51.96582	1.73433	5376.21
52.0659	1.73765	5389.604
52.166	1.74257	5402.58
52.2661	1.74366	5415.15
52.3662	1.7469	5428.96
52.4663	1.75006	5439.08
52.5664	1.75303	5453.66
52.6665	1.75664	5466.39
52.7666	1.76035	5479.54
52.8667	1.76305	5491.82
52.9668	1.766026	5504.22
53.0669	1.77006	5476.54
53.167	1.77289	5495.4
53.26709	1.77608	5508.18
53.3672	1.78013	5520.772
53.4673	1.78256	5532.08
53.5674	1.787132	5543.85
53.66748	1.78953	5557.22
53.7676	1.79216	5571.32
53.8677	1.79554	5583.77
53.9678	1.79906	5596.36
54.0679	1.80223	5610.39
54.168	1.805079	5622.59
54.2681	1.80835	5616
54.3682	1.81238	5601.751
54.4683	1.81711	5525.76
54.5684	1.82023	5537.48
54.6685	1.82316	5550.59
54.7686	1.82638	5563.1
54.8687	1.82967	5576.38
54.96875	1.832372	5572.84
55.0688	1.83607	5585.9
55.1689	1.83913	5598.58
55.269	1.84199	5612.38
55.3691	1.84477	5625.31
55.4692	1.84873	5637.417
55.5693	1.85097	5648.95
55.6694	1.85481	5662.79
55.7695	1.85783	5674.87
55.8696	1.86046	5687.59
55.9697	1.86529	5700.62
56.0698	1.867649	5712.82
56.1699	1.87179	5724.08
56.27002	1.8741	5737.33
56.3701	1.8778	5751.09
56.4702	1.88025	5761.25
56.5703	1.8836	5774.56
56.67041	1.88718	5788.78
56.7705	1.89008	5801.39
56.8706	1.89415	5813.042
56.9707	1.89729	5825.3
57.0708	1.90046	5835.48
57.1709	1.90423	5805.6
57.271	1.90826	5816.48
57.3711	1.90991	5828.41
57.4712	1.91369	5840.19
57.5713	1.91655	5854.13
57.6714	1.92063	5866.43
57.7715	1.92354	5879.21
57.8716	1.92723	5891.86
57.97168	1.929906	5905.312
58.0718	1.93351	5918.51
58.1719	1.93682	5923.99
58.272	1.94086	5937.12
58.37207	1.94313	5947.66
58.4722	1.94697	5955.84
58.5723	1.94963	5968.57
58.6724	1.95359	5982.45
58.7725	1.9586	5784.08
58.8726	1.96257	5796.17
58.9727	1.96558	5802.7
59.0728	1.9691	5814.83
59.1729	1.97134	5825.35
59.2729	1.974839	5839.26
59.373	1.97759	5846.78
59.4731	1.981467	5858.88
59.5732	1.98492	5865.19
59.67334	1.98827	5875.71
59.7734	1.990363	5889.8
59.8735	1.99479	5898.59
59.9736	1.998	5909.42
60.07373	2.00052	5921.79
60.1738	2.00343	5933.1
60.2739	2.00774	5906.25
60.374	2.01244	5854.61
60.4741	2.0141	5866.26
60.5742	2.01823	5878.52
60.6743	2.02131	5886.38
60.7744	2.02464	5880.34
60.8745	2.02801	5886.86
60.9746	2.03098	5895.41
61.0747	2.035	5908.12
61.1748	2.0376	5918.81
61.2749	2.04112	5930.34
61.375	2.04397	5940.918
61.4751	2.04835	5953.6
61.5752	2.05125	5962.9
61.6753	2.05505	5971.83
61.7754	2.05843	5979.14
61.8755	2.06065	5987.86
61.9756	2.06415	5999.21
62.0757	2.067688	6006.44
62.1758	2.07167	6016.93
62.2759	2.07356	6025.57
62.376	2.07747	6034.55
62.4761	2.08015	6042.36

Data Acquisition						Time:	2.71191	s	6/4/2018 4:18:40 PM
Time	MTS 4 Displacement 4	MTS 4 Force 4
s	mm	N
0.115234	2.08258	289.325
0.215332	2.08467	295.637
0.31543	2.08798	302.244
0.415527	2.09174	308.669
0.515625	2.09469	314.801
0.615723	2.09924	321.9433
0.71582	2.10202	327.856
0.815918	2.10604	334.8251
0.916016	2.10974	341.372
1.01611	2.11245	346.314
1.11621	2.11546	352.494
1.21631	2.11859	359.061
1.31641	2.12224	364.949
1.4165	2.12561	370.724
1.5166	2.12942	375.773
1.6167	2.13276	382.177
1.7168	2.13559	388.061
1.81689	2.13952	394.349
1.91699	2.1421	401.986
2.01709	2.146256	406.708
2.11719	2.14977	412.2749
2.21729	2.1524	418.137
2.31738	2.15609	420.754
2.41748	2.15898	428.425
2.51758	2.16225	434.311
2.61768	2.16624	439.047

Data Acquisition						Time:	6.2207	s	6/4/2018 4:19:00 PM
Time	MTS 4 Displacement 4	MTS 4 Force 4
s	mm	N
0.115234	2.17322	307.297
0.215332	2.17572	312.655
0.31543	2.1778	318.2197
0.415527	2.181509	325.347
0.515625	2.18631	331.337
0.615723	2.18762	336.353
0.71582	2.19227	343.292
0.815918	2.19592	348.276
0.916016	2.19912	353.0209
1.01611	2.20225	359.922
1.11621	2.20463	364.355
1.21631	2.20901	366.976
1.31641	2.21318	372.3624
1.4165	2.2161	377.429
1.5166	2.21868	383.346
1.6167	2.22245	386.326
1.7168	2.22559	393.148
1.81689	2.22998	395.906
1.91699	2.23252	402.097
2.01709	2.23569	405.808
2.11719	2.23971	409.733
2.21729	2.24198	416.539
2.31738	2.24586	420.635
2.41748	2.249351	425.1236
2.51758	2.25327	427.723
2.61768	2.25572	432.2225
2.71777	2.25908	436.98
2.81787	2.26362	441.939
2.91797	2.26625	445.06
3.01807	2.26954	451.004
3.11816	2.27301	354.358
3.21826	2.277863	367.0278
3.31836	2.28034	372.903
3.418457	2.28428	377.776
3.51855	2.28799	383.515
3.61865	2.29052	389.6864
3.71875	2.294013	392.038
3.81885	2.29699	398.515
3.91895	2.30139	403.128
4.019043	2.30425	408.2569
4.11914	2.30712	412.377
4.21924	2.3104	417.953
4.31934	2.31391	420.708
4.41943	2.31702	426.061
4.51953	2.32	430.284
4.61963	2.32387	434.965
4.71973	2.32673	439.172
4.81982	2.33046	443.646
4.91992	2.33352	448.614
5.02002	2.33683	454.386
5.12012	2.33985	457.589
5.22021	2.34367	462.235
5.32031	2.34684	465.211
5.42041	2.34969	470.449
5.52051	2.35268	475.913
5.62061	2.35708	480.315
5.7207	2.360183	483.202
5.8208	2.36281	488.511
5.9209	2.36583	491.659
6.021	2.37022	495.049
6.12109	2.37359	497.737

Data Acquisition						Time:	6.78955	s	6/4/2018 4:19:18 PM
Time	MTS 4 Displacement 4	MTS 4 Force 4
s	mm	N
0.114746	2.37788	317.973
0.214844	2.38032	322.601
0.314941	2.38352	327.744
0.415039	2.387342	336.671
0.515137	2.39063	344.428
0.615234	2.39491	350.5459
0.715332	2.39948	355.783
0.81543	2.40137	360.669
0.915527	2.40549	366.431
1.015625	2.4087	372.456
1.11572	2.41114	377.103
1.21582	2.41494	381.79
1.315918	2.41967	386.517
1.41602	2.42133	391.329
1.51611	2.42492	396.27
1.61621	2.42885	400.36
1.71631	2.431366	406.44
1.81641	2.43521	410.87
1.9165	2.43758	414.134
2.0166	2.44241	418.788
2.1167	2.4452	422.639
2.2168	2.449131	427.667
2.31689	2.452311	432.008
2.41699	2.45496	436.4621
2.51709	2.45803	440.269
2.61719	2.46196	445.415
2.71729	2.46532	448.762
2.81738	2.468127	453.737
2.91748	2.47197	458.685
3.01758	2.47516	462.689
3.11768	2.477777	467.175
3.21777	2.481401	471.049
3.31787	2.48565	476.214
3.41797	2.48893	479.818
3.51807	2.49151	480.991
3.61816	2.49627	368.743
3.71826	2.50286	378.897
3.81836	2.50431	384.102
3.918457	2.50828	388.22
4.01855	2.51121	394.642
4.11865	2.51452	399.558
4.21875	2.51816	404.568
4.31885	2.52059	408.349
4.41895	2.52371	414.499
4.519043	2.52681	418.246
4.61914	2.53036	424.851
4.71924	2.53373	428.059
4.81934	2.53654	432.068
4.91943	2.53987	437.083
5.01953	2.54447	441.07
5.11963	2.54694	445.6438
5.21973	2.54887	450.119
5.31982	2.55221	454.465
5.41992	2.55595	460.432
5.52002	2.55997	465.224
5.62012	2.5624	469.213
5.72021	2.56563	474.094
5.82031	2.56926	476.828
5.92041	2.57343	476.764
6.02051	2.57545	482.295
6.12061	2.57919	486.356
6.2207	2.58213	492.155
6.3208	2.58694	495.855
6.4209	2.589047	500.595
6.521	2.592185	505.406
6.62109	2.59558	510.085
6.72119	2.59855	514.247