File: dublin_poster_plots/Tensile Tests - Quenched Samples 20180604/BLPX-M1-Q015-03_20180604/specimen.dat
MTS793|MPT|ENU|1|2|.|/|:|1|0|0|A

Data Acquisition						Time:	102.194	s	6/4/2018 3:11:15 PM
Time	MTS 4 Displacement 4	MTS 4 Force 4
s	mm	N
0.114258	0.0002563	88.4236
0.214355	0.00170171	100.484
0.314453	0.00542104	122.1424
0.414551	0.00832677	147.819
0.514648	0.0108153	173.341
0.614746	0.0146657	197.683
0.714844	0.01809597	225.025
0.814941	0.02091825	248.688
0.915039	0.02540648	272.711
1.01514	0.0282198	295.849
1.11523	0.0315964	319.806
1.215332	0.0342935	343.412
1.31543	0.0377893	368.1
1.41553	0.0408739	392.984
1.515625	0.04426837	416.649
1.61572	0.0475079	440.456
1.71582	0.0515938	466.888
1.815918	0.0543714	492.099
1.91602	0.0576973	517.6142
2.01611	0.0602841	538.6983
2.11621	0.0636727	561.28
2.21631	0.0672787	587.453
2.31641	0.0713736	611.792
2.4165	0.0748992	636.36
2.5166	0.077334	661.04
2.6167	0.0812203	686.64
2.7168	0.0849396	710.462
2.81689	0.08738935	730.332
2.91699	0.0898093	754.383
3.01709	0.0940204	780.096
3.11719	0.0965744	804.8
3.21729	0.100476	830.194
3.31738	0.103435	853.249
3.41748	0.1072228	879.197
3.51758	0.112048	903.035
3.61768	0.11397	928.423
3.71777	0.117275	953.881
3.81787	0.12126	977.83
3.91797	0.12452	1002.25
4.01807	0.128233	1024.94
4.11816	0.130561	1048.7
4.21826	0.134474	1074.627
4.31836	0.136968	1098.34
4.418457	0.140047	1123.06
4.51855	0.145	1147.368
4.61865	0.147256	1171.07
4.71875	0.150335	1194.57
4.81885	0.154388	1220.35
4.91895	0.15817	1245.04
5.019043	0.161007	1268.67
5.11914	0.163746	1291.83
5.21924	0.167847	1314.87
5.31934	0.1701	1337.01
5.41943	0.173509	1361.59
5.51953	0.176984	1387.12
5.61963	0.181252	1409.84
5.71973	0.184342	1436.194
5.81982	0.1886785	1459.25
5.91992	0.191301	1482.44
6.02002	0.19359	1505.17
6.12012	0.197732	1531.9
6.22021	0.20186	1556.72
6.32031	0.20403	1583.1
6.42041	0.208735	1608.24
6.52051	0.211594	1629.02
6.62061	0.21413	1653.23
6.7207	0.21731	1678.19
6.8208	0.220507	1702.16
6.9209	0.224519	1727.43
7.021	0.227466	1749.718
7.12109	0.230902	1773.894
7.22119	0.233176	1796.99
7.32129	0.236672	1823.34
7.42139	0.241679	1849.22
7.52148	0.244737	1874.57
7.621582	0.249094	1897.08
7.72168	0.251886	1921.833
7.82178	0.254595	1945.7
7.921875	0.257829	1970.144
8.02197	0.261191	1993.55
8.12207	0.264049	2015.41
8.222168	0.267366	2036.87
8.32227	0.270614	2061.74
8.42236	0.274044	2087.26
8.52246	0.278056	2111.56
8.62256	0.281167	2136.8
8.72266	0.28435	2162.29
8.82275	0.288546	2187.06
8.92285	0.29119	2209.71
9.02295	0.29521	2232.1
9.12305	0.297767	2256.33
9.22314	0.301281	2280.28
9.32324	0.304842	2303.38
9.42334	0.308463	2328.189
9.52344	0.31175	2350.46
9.62354	0.314662	2374.78
9.72363	0.316888	2397.95
9.82373	0.32056	2424.07
9.92383	0.325298	2449.887
10.0239	0.329456	2480.43
10.124	0.33395	2506.25
10.2241	0.33648	2531.28
10.3242	0.339538	2553.791
10.4243	0.344017	2580.05
10.5244	0.347573	2605.85
10.6245	0.351405	2631.58
10.7246	0.356102	2674.72
10.8247	0.364098	2728.37
10.9248	0.368005	2757.37
11.0249	0.371119	2779.04
11.125	0.374582	2801.168
11.2251	0.378892	2822.53
11.3252	0.381163	2845.81
11.4253	0.384966	2867.842
11.5254	0.387013	2886.84
11.6255	0.390145	2910.91
11.7256	0.392851	2935.79
11.8257	0.396237	2957.35
11.9258	0.399235	2978.02
12.0259	0.402987	3000.06
12.126	0.405011	3022.29
12.2261	0.409117	3042.68
12.3262	0.412208	3065.73
12.42627	0.415218	3087.08
12.5264	0.417471	3109.74
12.6265	0.4214257	3132.281
12.7266	0.425279	3155.24
12.82666	0.428921	3177.02
12.9268	0.431061	3197.36
13.0269	0.433812	3220.62
13.127	0.436881	3244.36
13.2271	0.440669	3267.01
13.3271	0.443098	3289.71
13.4272	0.446352	3312.1
13.5273	0.450513	3334.92
13.6274	0.453937	3359.3
13.7275	0.456393	3382.59
13.8276	0.459883	3403.77
13.9277	0.463104	3423.26
14.0278	0.465667	3447.74
14.12793	0.468197	3470.4
14.228	0.473419	3494.61
14.3281	0.4750073	3516.06
14.4282	0.47892	3534.44
14.52832	0.48233	3558.17
14.6284	0.484818	3582.36
14.7285	0.489229	3605.81
14.8286	0.491881	3628.16
14.9287	0.494814	3651.33
15.0288	0.498745	3674.46
15.1289	0.5009	3693.52
15.229	0.50441	3715.94
15.3291	0.508139	3740.56
15.4292	0.512224	3762.5
15.5293	0.514784	3785.95
15.6294	0.518176	3808.54
15.7295	0.522098	3832.38
15.82959	0.524995	3853.92
15.9297	0.526816	3876.25
16.0298	0.531283	3899.83
16.1299	0.53446	3922.29
16.22998	0.53786	3943.91
16.3301	0.540471	3966.39
16.4302	0.544009	3988.47
16.5303	0.547311	4012.44
16.6304	0.549901	4036.62
16.7305	0.554708	4058.82
16.8306	0.5568	4079.77
16.9307	0.55995	4105.519
17.0308	0.563985	4128.22
17.1309	0.5666554	4150.89
17.231	0.570777	4175.29
17.3311	0.57326	4197.38
17.4312	0.576323	4219.47
17.53125	0.580385	4244.04
17.6313	0.584245	4266.377
17.7314	0.587267	4289.86
17.8315	0.590649	4312.49
17.9316	0.594392	4335.09
18.0317	0.596887	4358.47
18.1318	0.59998	4381.36
18.2319	0.604138	4405.38
18.332	0.607532	4430.05
18.4321	0.6103456	4453.47
18.5322	0.614217	4476.27
18.6323	0.616959	4498.48
18.7324	0.62018	4519.27
18.83252	0.623816	4542.876
18.9326	0.627083	4568.66
19.0327	0.630239	4591.57
19.1328	0.633562	4615.21
19.23291	0.637716	4637.92
19.333	0.641158	4661.41
19.4331	0.644627	4687.5
19.5332	0.647202	4712.44
19.6333	0.650784	4734.26
19.7334	0.655216	4760.55
19.8335	0.656623	4779.95
19.9336	0.6606102	4798
20.0337	0.664231	4821.29
20.1338	0.6673187	4845.11
20.2339	0.6722331	4868.64
20.334	0.674051	4890.54
20.4341	0.677958	4916.88
20.53418	0.681522	4942.17
20.6343	0.684223	4963.79
20.7344	0.687692	4987.25
20.8345	0.691596	5008.85
20.93457	0.69454	5030.14
21.0347	0.698811	5052.95
21.1348	0.7008642	5076.06
21.2349	0.705272	5099.16
21.335	0.707284	5122.05
21.4351	0.710845	5142.9
21.5352	0.714418	5166.97
21.6353	0.717744	5189.01
21.7354	0.719982	5212.44
21.8354	0.723529	5235.81
21.9355	0.727469	5259.35
22.0356	0.732052	5281.97
22.1357	0.734609	5305.88
22.23584	0.737962	5328.14
22.3359	0.741625	5350.24
22.436	0.744337	5372.05
22.5361	0.747818	5394.36
22.63623	0.75132	5418.37
22.7363	0.754291	5440.58
22.8364	0.758868	5465.49
22.9365	0.761747	5487.31
23.0366	0.765076	5511.57
23.1367	0.768554	5535.19
23.2368	0.771746	5557.15
23.3369	0.7753253	5578.29
23.437	0.77768	5600.36
23.5371	0.781181	5621.75
23.6372	0.7853806	5644.2
23.7373	0.788116	5667.53
23.8374	0.791827	5690.32
23.9375	0.793913	5711.1
24.0376	0.797421	5733
24.1377	0.801384	5756.876
24.2378	0.804928	5779.81
24.3379	0.808766	5804.54
24.438	0.811899	5827.729
24.5381	0.8148402	5847.62
24.6382	0.81864	5867.52
24.7383	0.821033	5892.43
24.8384	0.825006	5915.31
24.9385	0.828665	5938.75
25.0386	0.830925	5960.14
25.1387	0.835568	5987.09
25.23877	0.839576	6012.94
25.3389	0.841874	6035.06
25.439	0.846818	6057.28
25.5391	0.849101	6079.48
25.63916	0.85268	6103.41
25.7393	0.8559674	6125.1
25.8394	0.858647	6146.91
25.9395	0.862318	6168.56
26.0396	0.865337	6189.49
26.1396	0.8687526	6212.77
26.2397	0.87257	6239.8
26.3398	0.876197	6263.72
26.4399	0.879887	6285.08
26.54	0.882006	6305.69
26.6401	0.885555	6325.355
26.7402	0.889194	6346.13
26.8403	0.8913815	6367.84
26.94043	0.895318	6390.09
27.0405	0.899014	6414.689
27.1406	0.902799	6437.26
27.2407	0.905323	6457.99
27.34082	0.909984	6482.87
27.4409	0.912717	6504.51
27.541	0.916106	6526.24
27.6411	0.918624	6547.17
27.7412	0.922036	6569.25
27.8413	0.925392	6591.23
27.9414	0.929523	6614.54
28.0415	0.932482	6634.56
28.1416	0.935754	6658.91
28.2417	0.938758	6683.01
28.3418	0.942126	6703.93
28.4419	0.945371	6726.07
28.542	0.94898	6746.09
28.64209	0.95216	6769.82
28.7422	0.955859	6791.01
28.8423	0.9590596	6811.53
28.9424	0.962368	6835.708
29.04248	0.965559	6859.11
29.1426	0.969049	6881.72
29.2427	0.972393	6903.66
29.3428	0.975949	6926.23
29.4429	0.978571	6948.62
29.543	0.982019	6969.36
29.6431	0.985977	6991.17
29.7432	0.990036	7011.03
29.8433	0.992814	7033.167
29.9434	0.995457	7054.84
30.0435	1.00005	7077.32
30.1436	1.001212	7097.46
30.2437	1.00561	7122.437
30.34375	1.00908	7148.15
30.4438	1.012522	7170.95
30.5439	1.01696	7193.81
30.644	1.01997	7214.76
30.7441	1.02361	7235.49
30.8442	1.02737	7257.19
30.9443	1.028654	7278.41
31.0444	1.03294	7302.874
31.1445	1.03601	7325.11
31.2446	1.03968	7349.84
31.3447	1.04374	7371.39
31.4448	1.04668	7392.65
31.5449	1.05009	7414.58
31.64502	1.05335	7438.36
31.7451	1.05659	7458.3
31.8452	1.05963	7482.28
31.9453	1.06374	7504.4
32.04541	1.06571	7525.877
32.1455	1.069358	7547.18
32.2456	1.07315	7569.05
32.3457	1.07622	7592.28
32.4458	1.080358	7616.69
32.5459	1.08193	7638.2
32.646	1.086989	7659.61
32.7461	1.0898	7679.71
32.8462	1.09316	7701.46
32.9463	1.09545	7723.95
33.0464	1.09939	7745.897
33.1465	1.10369	7766.35
33.2466	1.10621	7790.34
33.34668	1.11021	7809.77
33.4468	1.11247	7831.43
33.5469	1.11753	7852.09
33.647	1.12044	7873.32
33.74707	1.12236	7893.89
33.8472	1.127544	7918.16
33.9473	1.12957	7939.26
34.0474	1.13266	7960.47
34.1475	1.13605	7983.66
34.2476	1.14	8004.47
34.3477	1.14375	8026.62
34.4478	1.14638	8046.64
34.5479	1.14946	8069.16
34.6479	1.15311	8089.86
34.748	1.15634	8110.71
34.8481	1.15912	8132.8
34.9482	1.16318	8154.93
35.04834	1.16609	8176.73
35.1484	1.16964	8199.34
35.2485	1.17258	8220.97
35.3486	1.17562	8240.64
35.44873	1.17937	8262.8
35.5488	1.182285	8284.95
35.6489	1.18651	8306.52
35.749	1.18969	8328.36
35.8491	1.19318	8350.916
35.9492	1.19617	8371.959
36.0493	1.20015	8394.39
36.1494	1.20321	8414.8
36.2495	1.20656	8434.16
36.3496	1.20954	8456.41
36.4497	1.212579	8476.375
36.5498	1.21676	8499.06
36.6499	1.21859	8519.7
36.75	1.22342	8542.25
36.8501	1.22697	8565.6
36.9502	1.23003	8585.7
37.0503	1.23277	8607.65
37.1504	1.23638	8629.63
37.2505	1.24	8647.31
37.3506	1.24344	8671.45
37.4507	1.24685	8695.26
37.5508	1.2504	8717.36
37.6509	1.25361	8737.126
37.751	1.25664	8758.15
37.8511	1.2606	8782.49
37.9512	1.26367	8800.05
38.05127	1.26613	8822.043
38.1514	1.27056	8845.39
38.2515	1.27333	8866.76
38.3516	1.27699	8888.99
38.45166	1.28014	8909.7
38.5518	1.28287	8932.18
38.6519	1.28593	8952.94
38.752	1.28987	8973.27
38.8521	1.29322	8995.92
38.9521	1.29612	9016.86
39.0522	1.30013	9037.98
39.1523	1.30364	9060.46
39.2524	1.30722	9082.39
39.3525	1.3098	9102.792
39.4526	1.31302	9122.82
39.5527	1.31696	9143.56
39.6528	1.3212	9166.12
39.75293	1.32306	9186.65
39.853	1.32577	9207.58
39.9531	1.32939	9230.36
40.0532	1.33338	9252.9
40.15332	1.33614	9276.47
40.2534	1.34029	9297.44
40.3535	1.34348	9317.52
40.4536	1.3467	9339.73
40.5537	1.35029	9363.56
40.6538	1.353246	9384.96
40.7539	1.35727	9405.55
40.854	1.35997	9428.81
40.9541	1.36456	9448.87
41.0542	1.36647	9470.34
41.1543	1.370132	9490.11
41.2544	1.3741	9513.55
41.3545	1.37708	9534.1
41.45459	1.38026	9554.83
41.5547	1.38335	9575.26
41.6548	1.38749	9595.71
41.7549	1.39034	9615.95
41.85498	1.39384	9637.69
41.9551	1.39663	9660.78
42.0552	1.40007	9682.07
42.1553	1.40396	9702.29
42.2554	1.40719	9722.49
42.3555	1.4095	9743.39
42.4556	1.41417	9763.98
42.5557	1.41692	9783.09
42.6558	1.41911	9805.34
42.7559	1.42351	9825.97
42.856	1.42686	9850.21
42.9561	1.43053	9871.418
43.0562	1.43266	9890.04
43.15625	1.43591	9911.97
43.2563	1.43974	9933.166
43.3564	1.4432	9954.791
43.4565	1.4471	9975.65
43.5566	1.44969	9998.33
43.6567	1.45345	10019.763
43.7568	1.456815	10039.967
43.8569	1.45959	10061.234
43.957	1.46295	10081.821
44.0571	1.46614	10100.57
44.1572	1.47072	10121.966
44.2573	1.47373	10144.181
44.3574	1.47625	10165.424
44.45752	1.47993	10186.568
44.5576	1.48323	10204.781
44.6577	1.4878	10227.974
44.7578	1.48943	10249.971
44.85791	1.49388	10272.623
44.958	1.49638	10293.276
45.0581	1.50045	10313.264
45.1582	1.50304	10334.493
45.2583	1.50738	10353.532
45.3584	1.50974	10375.231
45.4585	1.51328	10395.848
45.5586	1.51677	10417.628
45.6587	1.51986	10436.194
45.7588	1.52326	10457.246
45.8589	1.52627	10477.86
45.959	1.53177	10498.086
46.0591	1.533258	10518.255
46.15918	1.53629	10538.77
46.2593	1.54021	10561.108
46.3594	1.54386	10582.07
46.4595	1.546824	10602.847
46.55957	1.55065	10623.466
46.6597	1.55309	10643.86
46.7598	1.5573	10666.229
46.8599	1.56045	10685.428
46.96	1.56351	10706.129
47.0601	1.56592	10730.859
47.1602	1.57072	10751.007
47.2603	1.57391	10773.454
47.3604	1.57721	10793.922
47.4604	1.58055	10816.066
47.5605	1.58428	10836.472
47.6606	1.587522	10858.853
47.7607	1.59062	10880.318
47.86084	1.59273	10898.905
47.9609	1.59681	10920.466
48.061	1.60024	10939.49
48.1611	1.604265	10960.983
48.26123	1.60728	10978.674
48.3613	1.6099	10999.385
48.4614	1.61289	11020.905
48.5615	1.61695	11042.152
48.6616	1.62012	11063.218
48.7617	1.62511	11085.127
48.8618	1.6259	11106.524
48.9619	1.63074	11126.582
49.062	1.63337	11148.008
49.1621	1.63672	11165.791
49.2622	1.64028	11185.804
49.3623	1.64388	11205.692
49.4624	1.64706	11228.016
49.5625	1.65015	11248.419
49.6626	1.654	11269.696
49.7627	1.65671	11290.14
49.8628	1.65955	11310.764
49.9629	1.66401	11333.678
50.063	1.66725	11352.894
50.1631	1.67089	11374.267
50.2632	1.67433	11395.313
50.3633	1.67809	11416.626
50.4634	1.68155	11434.926
50.5635	1.68354	11455.983
50.6636	1.6878	11477.344
50.7637	1.68986	11499.546
50.86377	1.69278	11520.006
50.9639	1.69852	11539.137
51.064	1.70095	11559.035
51.1641	1.70338	11580.958
51.26416	1.70778	11603.847
51.3643	1.71011	11624.783
51.4644	1.71461	11645.699
51.5645	1.71812	11666.275
51.6646	1.72148	11686.795
51.7646	1.72503	11707.286
51.8647	1.7271	11727.357
51.9648	1.73052	11747.592
52.0649	1.73435	11768.03
52.165	1.73747	11790.203
52.2651	1.74016	11809.488
52.3652	1.744315	11827.61
52.4653	1.74752	11848.396
52.56543	1.750797	11870.372
52.6655	1.75425	11891.438
52.7656	1.7573	11911.346
52.8657	1.76125	11931.608
52.96582	1.76365	11951.209
53.0659	1.76718	11973.202
53.166	1.771006	11992.149
53.2661	1.77431	12012.898
53.3662	1.776278	12031.482
53.4663	1.78085	12051.322
53.5664	1.78468	12072.36
53.6665	1.7869	12087.41
53.7666	1.78958	12107.275
53.8667	1.79349	12130.067
53.9668	1.79725	12153.823
54.0669	1.80051	12175.353
54.167	1.8036	12198.519
54.26709	1.80826	12220.7
54.3672	1.8115	12241.617
54.4673	1.81545	12261.103
54.5674	1.8176	12281.679
54.66748	1.82128	12302.641
54.7676	1.82432	12322.292
54.8677	1.82692	12343.482
54.9678	1.83143	12364.892
55.0679	1.83548	12384.834
55.168	1.83738	12406.564
55.2681	1.84098	12427.165
55.3682	1.84534	12444.682
55.4683	1.84754	12464.582
55.5684	1.85187	12485.371
55.6685	1.85525	12504.629
55.7686	1.85834	12526.113
55.8687	1.86136	12547.918
55.96875	1.86472	12566.188
56.0688	1.86881	12588.639
56.1689	1.87189	12611.143
56.269	1.87545	12630.094
56.3691	1.87843	12650.822
56.4692	1.88246	12671.102
56.5693	1.88474	12693.154
56.6694	1.88801	12712.722
56.7695	1.89259	12732.231
56.8696	1.894924	12753.504
56.9697	1.89842	12773.981
57.0698	1.90173	12794.051
57.1699	1.9051	12812.441
57.27002	1.90922	12832.651
57.3701	1.91235	12854.932
57.4702	1.915884	12874.83
57.5703	1.91809	12895.973
57.67041	1.92242	12917.26
57.7705	1.92546	12937.809
57.8706	1.92891	12958.682
57.9707	1.93199	12977.209
58.0708	1.93547	12997.361
58.1709	1.93824	13018.596
58.271	1.94231	13038.916
58.3711	1.945743	13058.258
58.4712	1.94844	13079.104
58.5713	1.9519	13099.675
58.6714	1.95593	13119.267
58.7715	1.95873	13140.808
58.8716	1.96197	13160.243
58.97168	1.96521	13179.283
59.0718	1.96892	13200.216
59.1719	1.97232	13219.903
59.272	1.97527	13240.052
59.37207	1.97775	13259.68
59.4722	1.98393	13278.84
59.5723	1.98436	13297.848
59.6724	1.98838	13320.803
59.7725	1.992631	13338.73
59.8726	1.99493	13360.117
59.9727	1.99824	13380.886
60.0728	2.00256	13399.919
60.1729	2.005446	13418.788
60.2729	2.00855	13439.223
60.373	2.01152	13458.903
60.4731	2.01437	13478.349
60.5732	2.01803	13499.611
60.67334	2.0218	13520.827
60.7734	2.02507	13539.952
60.8735	2.02735	13560.005
60.9736	2.03153	13580.134
61.07373	2.03518	13597.855
61.1738	2.0384	13618.468
61.2739	2.04076	13638.741
61.374	2.04437	13658.154
61.4741	2.04762	13678.409
61.5742	2.05184	13698.529
61.6743	2.05484	13718.735
61.7744	2.05857	13738.313
61.8745	2.06135	13758.804
61.9746	2.06468	13779.025
62.0747	2.06894	13799.56
62.1748	2.0709	13819.341
62.2749	2.07489	13837.724
62.375	2.077785	13858.458
62.4751	2.08147	13877.955
62.5752	2.08454	13899.449
62.6753	2.087903	13918.228
62.7754	2.09164	13939.564
62.8755	2.09409	13960.105
62.9756	2.09745	13982.375
63.0757	2.10138	14000.972
63.1758	2.10464	14019.535
63.2759	2.10698	14040.744
63.376	2.111855	14060.779
63.4761	2.114758	14078.023
63.5762	2.11813	14100.066
63.67627	2.12158	14117.086
63.7764	2.12359	14137.209
63.8765	2.12702	14158.679
63.9766	2.13218	14178.212
64.07666	2.134356	14199.658
64.1768	2.13818	14219.666
64.2769	2.14075	14239.874
64.377	2.14522	14261.315
64.4771	2.14846	14279.775
64.5771	2.15129	14300.456
64.6772	2.155149	14320.675
64.7773	2.15738	14341.318
64.8774	2.16216	14360.874
64.9775	2.16428	14379.304
65.0776	2.16816	14401.218
65.1777	2.17132	14422.36
65.2778	2.17445	14440.22
65.37793	2.17831	14459.908
65.478	2.18106	14480.663
65.5781	2.183959	14501.364
65.6782	2.18842	14522.708
65.77832	2.19141	14542.321
65.8784	2.194026	14561.273
65.9785	2.198875	14582.678
66.0786	2.201447	14603.042
66.1787	2.205214	14623.021
66.2788	2.2082	14642.618
66.3789	2.21207	14662.296
66.479	2.21549	14681.285
66.5791	2.21898	14700.138
66.6792	2.22173	14718.608
66.7793	2.22511	14736.537
66.8794	2.22843	14753.638
66.9795	2.23185	14770.657
67.07959	2.23442	14792.51
67.1797	2.23876	14812.523
67.2798	2.24092	14834.49
67.3799	2.24463	14856.831
67.47998	2.24793	14878.603
67.5801	2.25103	14897.021
67.6802	2.25506	14917.866
67.7803	2.25808	14937.736
67.8804	2.26167	14957.188
67.9805	2.26447	14977.661
68.0806	2.26854	14999.54
68.1807	2.27148	15020.202
68.2808	2.27447	15040.177
68.3809	2.278769	15057.109
68.481	2.28046	15077.926
68.5811	2.28451	15094.422
68.6812	2.28807	15113.501
68.78125	2.29117	15132.933
68.8813	2.29403	15151.497
68.9814	2.29886	15170.527
69.0815	2.301219	15187.94
69.1816	2.30429	15208.758
69.2817	2.30873	15230.908
69.3818	2.30978	15250.854
69.4819	2.31489	15270.533
69.582	2.31829	15288.434
69.6821	2.32149	15307.046
69.7822	2.32411	15326.842
69.8823	2.32783	15346.269
69.9824	2.33195	15365.753
70.08252	2.334115	15385.474
70.1826	2.33776	15406.391
70.2827	2.34084	15427.7
70.3828	2.344	15443.657
70.48291	2.3465	15465.767
70.583	2.35074	15484.891
70.6831	2.35376	15504.972
70.7832	2.35763	15522.297
70.8833	2.36124	15542.882
70.9834	2.3635	15563.286
71.0835	2.368	15582.362
71.1836	2.37071	15602.899
71.2837	2.37487	15624.019
71.3838	2.37835	15643.948
71.4839	2.38172	15663.056
71.584	2.38511	15684.461
71.6841	2.38744	15703.393
71.78418	2.39142	15723.747
71.8843	2.39582	15743.71
71.9844	2.39776	15763.233
72.0845	2.40245	15781.027
72.18457	2.40431	15799.363
72.2847	2.40732	15821.353
72.3848	2.41109	15839.047
72.4849	2.41427	15858.331
72.585	2.41826	15876.996
72.6851	2.4216	15895.902
72.7852	2.424407	15916.026
72.8853	2.428493	15935.484
72.9854	2.43014	15956.1
73.0854	2.434665	15975.218
73.1855	2.43911	15995.713
73.2856	2.44121	16017.008
73.3857	2.44565	16037.3
73.48584	2.44796	16055.524
73.5859	2.451539	16076.048
73.686	2.45466	16095.955
73.7861	2.45873	16114.144
73.88623	2.46174	16134.235
73.9863	2.46396	16152
74.0864	2.46744	16169.626
74.1865	2.47119	16189.099
74.2866	2.47399	16210.226
74.3867	2.47795	16230.406
74.4868	2.48145	16250.061
74.5869	2.48468	16266.632
74.687	2.48847	16287.165
74.7871	2.49095	16304.397
74.8872	2.49471	16322.93
74.9873	2.49822	16341.927
75.0874	2.50098	16360.54
75.1875	2.50476	16381.828
75.2876	2.5079	16403.195
75.3877	2.51159	16420.156
75.4878	2.51382	16432.754
75.5879	2.51771	16454.412
75.688	2.5212	16475.154
75.7881	2.52483	16494.008
75.8882	2.52869	16515.793
75.9883	2.53176	16533.998
76.0884	2.53504	16555.844
76.1885	2.53813	16575.568
76.2886	2.5419	16593.656
76.3887	2.54525	16615.398
76.48877	2.54804	16633.055
76.5889	2.55176	16650.645
76.689	2.55522	16669.277
76.7891	2.557832	16687.389
76.88916	2.56174	16707.234
76.9893	2.56456	16726.449
77.0894	2.56807	16741.814
77.1895	2.57225	16761.867
77.2896	2.57435	16782.918
77.3896	2.57778	16800.721
77.4897	2.581778	16820.248
77.5898	2.58534	16838.98
77.6899	2.5878	16859.061
77.79	2.59151	16876.918
77.8901	2.594322	16896.26
77.9902	2.59816	16918.027
78.0903	2.60188	16938.355
78.19043	2.605617	16957.42
78.2905	2.60859	16974.576
78.3906	2.61201	16994.068
78.4907	2.61526	17013.135
78.59082	2.61796	17030.477
78.6909	2.62181	17050.109
78.791	2.624455	17066.887
78.8911	2.627924	17086.656
78.9912	2.63171	17107.344
79.0913	2.63498	17124.969
79.1914	2.63771	17144.131
79.2915	2.64128	17165.244
79.3916	2.64511	17186.195
79.4917	2.64839	17204.23
79.5918	2.65098	17223.65
79.6919	2.65508	17242.316
79.792	2.65867	17260.768
79.89209	2.66245	17283.854
79.9922	2.66613	17305.635
80.0923	2.66961	17323.643
80.1924	2.67251	17341.443
80.29248	2.67593	17359.691
80.3926	2.67943	17377.525
80.4927	2.68204	17396.199
80.5928	2.68451	17416.205
80.6929	2.68852	17432.949
80.793	2.69123	17449.986
80.8931	2.69414	17466.504
80.9932	2.69738	17487.813
81.0933	2.70092	17505.5
81.1934	2.70459	17525.609
81.2935	2.7088	17542.961
81.3936	2.71163	17562.271
81.4937	2.71638	17581.545
81.59375	2.71769	17601.041
81.6938	2.72159	17621.15
81.7939	2.72619	17640.33
81.894	2.7291	17658.146
81.9941	2.731657	17675.148
82.0942	2.73489	17694.043
82.1943	2.73776	17713.25
82.2944	2.740881	17731.633
82.3945	2.74413	17750.434
82.4946	2.74865	17769.344
82.5947	2.75189	17789.266
82.6948	2.75401	17805.791
82.7949	2.75748	17824.832
82.89502	2.76102	17843.301
82.9951	2.76385	17864.35
83.0952	2.76873	17882.525
83.1953	2.77232	17901.688
83.29541	2.77469	17919.215
83.3955	2.77772	17936.678
83.4956	2.78185	17955.35
83.5957	2.78514	17973.975
83.6958	2.78774	17992.252
83.7959	2.79151	18011.291
83.896	2.79489	18030.143
83.9961	2.79783	18047.625
84.0962	2.80143	18067.242
84.1963	2.80509	18086.85
84.2964	2.80873	18108.518
84.3965	2.81232	18126.996
84.4966	2.81543	18140.844
84.59668	2.81839	18161.207
84.6968	2.82158	18180.646
84.7969	2.82493	18197.477
84.897	2.82838	18216.15
84.99707	2.83176	18234.082
85.0972	2.83465	18252.365
85.1973	2.83853	18270.975
85.2974	2.84049	18291.148
85.3975	2.84554	18310.766
85.4976	2.84809	18329.346
85.5977	2.85174	18347.627
85.6978	2.85481	18364.383
85.7979	2.85811	18382.006
85.8979	2.86291	18403.197
85.998	2.86376	18421.73
86.0981	2.868125	18442.615
86.1982	2.87086	18459.51
86.29834	2.872941	18475.658
86.3984	2.87835	18495.32
86.4985	2.8813	18514.627
86.5986	2.88467	18533.912
86.69873	2.88808	18551.613
86.7988	2.8912	18567.408
86.8989	2.89436	18585.244
86.999	2.8989	18602.445
87.0991	2.90115	18622.984
87.1992	2.90488	18642.064
87.2993	2.90849	18659.957
87.3994	2.91176	18678.252
87.4995	2.91471	18694.619
87.5996	2.91816	18713.215
87.6997	2.92123	18731.217
87.7998	2.92587	18748.496
87.8999	2.92901	18769.83
88	2.932498	18786.168
88.1001	2.93451	18803.814
88.2002	2.93702	18822.689
88.3003	2.94113	18838.91
88.4004	2.94498	18858.09
88.5005	2.948159	18876.934
88.6006	2.95178	18896.145
88.7007	2.95422	18913.977
88.8008	2.958715	18931.6
88.9009	2.96198	18950.379
89.001	2.96556	18969.607
89.1011	2.96846	18986.75
89.2012	2.97214	19003.18
89.30127	2.97592	19019.279
89.4014	2.97852	19037.959
89.5015	2.98104	19055.229
89.6016	2.98543	19073.551
89.70166	2.98803	19092.648
89.8018	2.99117	19111.576
89.9019	2.995327	19132.15
90.002	2.9983	19149.092
90.1021	3.001657	19166.555
90.2021	3.00559	19185.08
90.3022	3.00735	19200.236
90.4023	3.01091	19217.9
90.5024	3.01494	19238.178
90.6025	3.01712	19255.844
90.7026	3.02141	19272.668
90.8027	3.024724	19293.117
90.9028	3.02783	19310.748
91.00293	3.03084	19328.586
91.103	3.03532	19350.248
91.2031	3.03852	19369.18
91.3032	3.04143	19386.439
91.40332	3.0446	19405.199
91.5034	3.04738	19422.375
91.6035	3.051743	19442.488
91.7036	3.05508	19460.387
91.8037	3.05883	19478.748
91.9038	3.06148	19497.504
92.0039	3.06508	19513.182
92.104	3.06979	19529.564
92.2041	3.07188	19547.281
92.3042	3.07429	19565.771
92.4043	3.07822	19584.123
92.5044	3.081727	19601.563
92.6045	3.08575	19621.422
92.70459	3.08831	19638.656
92.8047	3.092155	19658.285
92.9048	3.09481	19675.258
93.0049	3.0981	19692.711
93.10498	3.10068	19710.51
93.2051	3.10498	19730.727
93.3052	3.10803	19748.178
93.4053	3.11125	19766.91
93.5054	3.11636	19785.604
93.6055	3.11814	19802.037
93.7056	3.12142	19818.746
93.8057	3.12615	19838.756
93.9058	3.12804	19854.68
94.0059	3.13156	19876.025
94.106	3.13548	19894.254
94.2061	3.13951	19910.514
94.3062	3.14119	19927.207
94.40625	3.14682	19945.387
94.5063	3.14986	19964.283
94.6064	3.15248	19986.473
94.7065	3.15617	20003.176
94.8066	3.16035	20018.975
94.9067	3.16217	20035.158
95.0068	3.16588	20051.117
95.1069	3.17034	20066.096
95.207	3.17294	20084.16
95.3071	3.1763	20104.645
95.4072	3.18041	20124.051
95.5073	3.18359	20145.361
95.6074	3.18748	20163.762
95.70752	3.1903	20176.889
95.8076	3.19319	20193.092
95.9077	3.19611	20208.502
96.0078	3.20074	20226.217
96.10791	3.20295	20241.875
96.208	3.2053	20255.297
96.3081	3.20993	20275.354
96.4082	3.2118	20293.879
96.5083	3.21574	20310.504
96.6084	3.21909	20327.662
96.7085	3.22298	20345.387
96.8086	3.227088	20360.107
96.9087	3.22994	20375.283
97.0088	3.23292	20393.758
97.1089	3.236249	20412.662
97.209	3.23922	20430.369
97.3091	3.24246	20447.566
97.40918	3.24618	20464.873
97.5093	3.24888	20483.102
97.6094	3.25222	20501.607
97.7095	3.25584	20517.52
97.80957	3.25905	20533.691
97.9097	3.26285	20548.402
98.0098	3.26625	20565.588
98.1099	3.26938	20581.439
98.21	3.27241	20596.115
98.3101	3.27686	20613.643
98.4102	3.27861	20629.445
98.5103	3.28211	20646.354
98.6104	3.2855	20665.557
98.7104	3.28929	20682.783
98.8105	3.293401	20699.283
98.9106	3.29563	20716.922
99.0107	3.29977	20734.242
99.11084	3.30286	20748.873
99.2109	3.30542	20764.146
99.311	3.30883	20781.203
99.4111	3.312546	20796.59
99.51123	3.315392	20808.533
99.6113	3.3193	20825.803
99.7114	3.32196	20843.551
99.8115	3.32551	20857.654
99.9116	3.32874	20873.928
100.012	3.33256	20888.268
100.112	3.33623	20904.424
100.212	3.33887	20921.801
100.312	3.3425	20934.336
100.412	3.34499	20951.666
100.512	3.34844	20967.762
100.6123	3.35156	20981.197
100.7124	3.35557	20996.572
100.8125	3.35868	21008.896
100.9126	3.36239	21024.783
101.0127	3.36539	21037.689
101.113	3.36975	21054.953
101.213	3.37142	21065.574
101.313	3.37665	21077.482
101.413	3.3787	21090.23
101.513	3.38149	21103.566
101.613	3.38579	21118.436
101.713	3.38871	21135.18
101.813	3.39298	21151.627
101.914	3.39708	21164.223
102.014	3.39912	21178.705
102.114	3.40233	21185.197